File: bartels lab/3642 MoS2 on 1012 WG/raman1_dominic/R1_c1/3642 waveguide 2881x 2307y Raman 1800 d1 t2 100x.txt
650.268	60.1647
649.786	60.08
649.306	60.128
648.823	60.02417
648.343	59.9305
647.863	59.877
647.38	59.6604
646.9	59.7507
646.417	59.6602
645.937	59.826
645.4541	60.1164
644.974	60.5078
644.491	60.8433
644.01	61.2196
643.528	61.5624
643.047	61.8801
642.564	62.1762
642.084	62.3867
641.601	62.5435
641.12	62.1815
640.637	61.9547
640.156	61.3271
639.674	60.7051
639.193	59.9289
638.71	59.1371
638.227	58.5832
637.746	57.9043
637.263	57.35379
636.782	57.0319
636.299	56.7852
635.818	57.65
635.335	58.6327
634.852	59.6604
634.371	60.7181
633.887	61.6857
633.406	62.43132
632.9231	63.1896
632.44	63.7777
631.959	64.1866
631.475	64.4106
630.992	64.334
630.511	64.2089
630.027	63.95937
629.544	63.71912
629.0625	63.4355
628.579	63.0953
628.096	62.77636
627.614	62.4049
627.131	62.0587
626.647	61.6834
626.163	61.466
625.682	61.2641
625.198	61.0426
624.7146	60.8958
624.233	60.8022
623.749	60.7074
623.2655	60.6879
622.782	60.7119
622.3	60.7454
621.816	60.8937
621.332	61.0506
620.849	61.3123
620.367	61.6403
619.883	61.9723
619.3988	62.3917
618.915	62.8354
618.431	63.437
617.949	64.0982
617.465	64.6112
616.981	64.5006
616.4967	64.2868
616.013	63.9226
615.528	63.4348
615.046	62.8351
614.562	62.4037
614.078	61.6568
613.594	60.69289
613.109	60.4677
612.625	60.6663
612.141	61.0109
611.656	61.75127
611.174	61.7635
610.69	61.7776
610.205	61.66732
609.721	61.5786
609.236	61.4125
608.752	61.2553
608.267	61.0353
607.783	60.867
607.298	60.5865
606.814	60.21991
606.329	60.2236
605.844	60.21349
605.36	60.37244
604.875	60.4413
604.39	60.5508
603.9054	60.6415
603.421	60.7684
602.936	60.8392
602.451	60.9362
601.966	60.9857
601.4812	61.0401
600.996	61.139
600.511	61.1416
600.026	61.0587
599.541	60.8305
599.0564	60.5829
598.571	60.3909
598.0863	60.13216
597.6012	59.8912
597.116	59.6217
596.631	59.36623
596.146	59.08033
595.661	58.797
595.175	58.4949
594.69	58.2085
594.205	57.9054
593.717	57.62466
593.232	57.364
592.747	57.099
592.261	57.0089
591.776	57.1119
591.291	57.31345
590.805	57.4579
590.32	57.5651
589.832	57.7417
589.347	57.85099
588.861	58.009
588.375	58.0973
587.89	58.1649
587.404	57.8829
586.9165	57.4576
586.431	56.9911
585.945	56.4587
585.459	55.85783
584.974	55.264
584.486	54.6831
584	54.1355
583.5141	54.1584
583.0282	54.3914
582.54	54.8364
582.054	55.3756
581.568	56.0248
581.082	56.5725
580.594	57.1247
580.1084	57.8029
579.622	57.9485
579.136	57.8221
578.648	57.50462
578.162	57.1972
577.676	56.9047
577.188	56.6966
576.701	56.5305
576.215	56.4179
575.727	56.34
575.2406	56.32618
574.754	56.41766
574.266	56.5318
573.7796	56.6783
573.293	56.9578
572.805	57.2477
572.3183	57.5724
571.832	57.927
571.343	58.2732
570.857	58.6277
570.368	58.9729
569.882	59.3482
569.395	59.61124
568.906	59.6153
568.42	59.3746
567.931	59.2579
567.444	59.0556
566.958	58.85038
566.469	58.60125
565.982	58.4033
565.493	58.1666
565.006	58.3189
564.517	58.8034
564.031	59.2949
563.542	59.8276
563.055	60.3354
562.568	60.9635
562.079	61.519
561.592	62.0621
561.103	62.4074
560.6156	62.6999
560.126	62.5831
559.639	62.5447
559.15	62.4551
558.661	62.3627
558.174	62.2321
557.685	62.1377
557.197	62.0391
556.708	62.1027
556.221	62.4895
555.731	62.6858
555.244	62.9558
554.755	63.1617
554.265	63.2956
553.778	63.3426
553.288	63.2504
552.801	62.7864
552.311	62.2478
551.822	61.578
551.334	60.6959
550.844	59.5932
550.357	58.438
549.867	57.7743
549.377	57.6795
548.89	59.2753
548.4	60.6636
547.91	62.0455
547.422	63.3989
546.933	64.9046
546.443	65.8728
545.955	66.6416
545.465	67.0321
544.975	67.3347
544.487	67.6732
543.997	67.8789
543.507	68.1066
543.019	68.2237
542.529	68.3227
542.039	68.3002
541.549	68.21357
541.061	67.9013
540.5705	67.5851
540.08	67.3303
539.59	67.2555
539.102	67.5924
538.612	68.2082
538.121	69.0431
537.631	70.0945
537.141	71.1987
536.652	72.42128
536.1618	73.6371
535.671	75.1081
535.181	76.7511
534.69	78.7008
534.202	81.1174
533.711	83.5745
533.221	86.0444
532.73	87.8581
532.24	89.5901
531.751	91.1846
531.26	93.142
530.77	95.4657
530.279	98.2334
529.788	101.536
529.297	105.457
528.807	110.667
528.316	117.965
527.8269	125.777
527.336	133.988
526.845	146.684
526.354	161.465
525.863	179.064
525.372	201.7041
524.881	242.193
524.3902	282.831
523.899	344.243
523.408	442.401
522.917	605.421
522.426	778.407
521.935	1066.6
521.443	1433.93
520.952	1692.4
520.461	1816.87
519.9696	1796.25
519.478	1457
518.987	1095
518.496	782
518.004	605
517.513	438.463
517.021	364.219
516.53	292.824
516.038	248.812
515.547	212.62
515.055	187.367
514.564	166.771
514.0722	151.381
513.581	136.834
513.089	125.365
512.597	117.133
512.106	110.412
511.6138	105.5
511.122	101.2066
510.63	97.5397
510.138	94.3918
509.645	92.216
509.153	89.1795
508.661	87.0635
508.169	83.2089
507.677	81.036
507.185	79.5305
506.693	78.2227
506.201	76.99897
505.707	75.78968
505.215	74.6486
504.723	73.5375
504.231	72.475
503.738	71.4422
503.246	70.4257
502.752	69.3797
502.2598	68.4081
501.768	67.4305
501.275	66.5205
500.783	65.6597
500.289	64.8187
499.796	64.0868
499.3038	62.1239
498.811	62.2815
498.317	62.7831
497.824	63.405
497.332	64.2551
496.839	65.2453
496.345	66.33342
495.852	67.3263
495.36	68.1361
494.867	68.56414
494.372	68.5812
493.88	68.0979
493.3869	67.1853
492.892	65.79628
492.399	64.7097
491.907	63.3642
491.412	62.1484
490.919	61.0369
490.426	60.1386
489.931	59.7276
489.438	59.5239
488.945	59.5304
488.45	60.3288
487.957	61.5259
487.464	62.3417
486.969	63.005
486.476	63.5484
485.983	63.9847
485.488	64.3126
484.994	64.551
484.499	64.6331
484.006	64.40361
483.513	64.1249
483.017	63.7715
482.524	63.34639
482.029	62.8851
481.535	62.2338
481.04	61.8692
480.547	61.5561
480.053	61.2215
479.558	61.0182
479.064	60.8927
478.569	60.7629
478.075	60.6639
477.58	60.5756
477.086	60.4942
476.59	60.4306
476.097	60.38242
475.601	60.3281
475.107	60.2565
474.611	60.2189
474.118	59.9623
473.622	59.9119
473.128	59.8034
472.6322	59.74918
472.138	59.7034
471.6424	59.68161
471.146	59.681
470.653	59.6753
470.156	59.70586
469.663	59.7085
469.166	59.73941
468.672	59.74234
468.1763	59.7563
467.68	59.7562
467.186	59.7608
466.69	59.753
466.196	59.7394
465.6994	59.7299
465.203	59.70734
464.709	59.6253
464.213	59.7291
463.716	61.6082
463.222	62.1271
462.7254	62.4062
462.231	62.6275
461.735	62.7193
461.238	62.7289
460.744	62.4189
460.247	62.0003
459.75	61.5338
459.254	61.0647
458.759	60.7661
458.263	60.6373
457.766	60.6254
457.2713	60.6503
456.775	61.4882
456.2778	62.05077
455.783	62.5203
455.286	62.8072
454.7894	62.8687
454.293	62.7722
453.7977	62.5853
453.301	62.1472
452.8038	61.41106
452.307	60.8257
451.81	61.0049
451.315	61.2797
450.818	61.6451
450.321	62.0207
449.824	62.41935
449.329	62.7768
448.831	63.0586
448.334	63.221
447.837	63.4359
447.34	63.5016
446.842	63.5066
446.347	63.49371
445.85	63.13694
445.352	62.7903
444.8551	62.3724
444.3577	61.9657
443.86	61.52
443.363	61.1452
442.867	60.7015
442.37	60.3775
441.872	60.2769
441.375	60.4616
440.877	60.3893
440.379	60.7445
439.882	61.1784
439.384	61.6553
438.886	62.157
438.389	62.6869
437.891	63.1276
437.395	63.5956
436.897	64.0066
436.3996	64.4954
435.902	64.6648
435.404	64.7483
434.906	64.7926
434.408	64.6972
433.91	64.5884
433.412	64.4033
432.914	64.25782
432.416	64.0696
431.918	63.8891
431.42	63.69
430.922	63.4939
430.4234	63.2954
429.9252	63.0957
429.427	62.9039
428.929	62.798
428.43	62.6498
427.932	62.5362
427.434	62.3762
426.935	62.284
426.435	62.1649
425.937	62.0738
425.4382	61.9699
424.94	61.8796
424.441	61.7911
423.943	61.7078
423.444	61.646
422.946	61.6489
422.447	61.6376
421.948	61.6373
421.45	61.7634
420.949	61.8233
420.45	62.03
419.952	62.2011
419.453	62.45739
418.954	62.715
418.4552	62.9746
417.956	63.2685
417.455	63.5418
416.957	63.8568
416.458	64.1414
415.959	64.3969
415.46	64.3534
414.961	64.3097
414.46	64.1545
413.961	63.74493
413.461	63.2587
412.962	62.7614
412.461	62.0981
411.962	61.4919
411.463	61.225
410.964	61.1184
410.464	60.965
409.963	61.0583
409.464	62.4903
408.964	64.2118
408.465	65.9079
407.964	67.58284
407.464	69.2827
406.965	70.9326
406.463	72.4894
405.964	73.7783
405.464	76.7989
404.9646	77.0925
404.463	76.701
403.963	74.93737
403.464	73.0958
402.962	71.2489
402.462	69.4318
401.963	67.69442
401.461	66.32476
400.961	65.1832
400.461	63.9107
399.959	63.3462
399.46	62.8905
398.958	62.569
398.4577	62.29998
397.958	62.1506
397.456	62.0303
396.956	61.9816
396.454	61.9748
395.954	62.0152
395.454	62.0966
394.951	62.0617
394.451	62.0793
393.9491	62.186
393.449	62.2316
392.949	62.2951
392.446	62.3707
391.946	62.4738
391.444	62.63752
390.944	62.7784
390.441	62.9611
389.941	63.17979
389.438	63.466
388.938	63.7395
388.435	64.2396
387.935	64.8098
387.432	65.3578
386.932	65.9158
386.429	66.4474
385.929	66.9545
385.4259	67.387
384.925	67.7325
384.423	67.3641
383.922	67.1493
383.419	66.5026
382.918	65.7834
382.4155	64.9897
381.915	64.134
381.4118	63.3158
380.909	62.4563
380.408	61.5197
379.905	61.1541
379.404	60.8149
378.901	60.611
378.398	60.4639
377.897	60.3996
377.394	60.3218
376.893	60.2871
376.39	60.2259
375.886	60.3073
375.385	60.2278
374.882	60.1394
374.379	59.8773
373.877	59.7333
373.374	59.4589
372.871	59.1918
372.369	59.0509
371.866	58.694
371.363	58.6729
370.861	58.6537
370.3577	58.6774
369.854	58.7441
369.353	58.8104
368.849	59.0153
368.345	59.1574
367.844	59.3513
367.34	59.5726
366.837	59.7519
366.333	59.904
365.831	60.00581
365.327	60.0888
364.824	59.9726
364.32	59.9186
363.818	59.8855
363.314	59.7561
362.81	59.6915
362.306	59.5925
361.804	59.5347
361.3	59.4578
360.796	59.4145
360.292	59.432
359.788	59.4805
359.286	59.7711
358.782	59.9288
358.278	60.1509
357.774	60.4058
357.269	60.5411
356.765	60.2167
356.263	59.8275
355.759	59.7193
355.254	59.7699
354.75	59.9117
354.246	60.0801
353.741	60.2528
353.237	60.2886
352.734	60.2563
352.23	60.13
351.7254	59.6529
351.221	59.0887
350.716	59.0851
350.2117	59.2527
349.707	59.7176
349.202	60.5146
348.698	61.8371
348.193	62.5461
347.688	63.0631
347.186	63.5817
346.681	63.0788
346.176	62.0964
345.671	61.3331
345.166	60.5679
344.661	59.9014
344.1564	59.2609
343.651	58.6742
343.146	58.1614
342.641	57.6617
342.136	57.2548
341.631	56.9551
341.126	56.8165
340.621	56.7394
340.116	56.6172
339.611	56.9641
339.106	57.3172
338.6	57.7941
338.095	58.3104
337.59	58.883
337.084	59.4424
336.577	59.9211
336.072	60.5114
335.566	60.8763
335.061	60.8312
334.555	60.8142
334.05	60.5018
333.544	60.4518
333.039	60.38884
332.5332	60.2952
332.028	60.2241
331.522	60.2109
331.014	60.1995
330.509	60.3117
330.003	60.376
329.497	60.4695
328.991	60.5895
328.486	60.7157
327.98	60.8377
327.474	60.9688
326.966	61.1017
326.46	61.2471
325.9541	61.3862
325.448	61.5323
324.942	61.6613
324.434	61.7833
323.928	61.9112
323.422	62.02
322.916	62.1378
322.41	62.2302
321.902	62.33577
321.395	62.4189
320.889	62.5103
320.383	62.5524
319.877	62.6226
319.368	62.6809
318.862	62.7533
318.356	62.7808
317.849	62.8328
317.341	62.956
316.834	62.90667
316.328	62.8524
315.819	62.7978
315.313	62.7336
314.806	62.6804
314.3	62.5902
313.791	62.5279
313.284	62.479
312.778	62.4446
312.269	62.4128
311.762	62.406
311.255	62.4543
310.747	62.5183
310.24	62.6452
309.733	63.398
309.224	63.924
308.717	64.454
308.2103	64.9801
307.701	65.5056
307.194	66.1406
306.685	66.7997
306.178	67.5273
305.6712	68.2513
305.162	68.8379
304.655	68.8245
304.146	67.95211
303.639	67.65715
303.131	66.0531
302.6221	66.65493
302.115	68.1111
301.6055	70.0684
301.098	72.3223
300.589	72.02317
300.081	69.0835
299.5741	69.866
299.065	70.6792
298.557	71.5982
298.048	71.309
297.54	70.2238
297.031	69.6024
296.523	69.2856
296.013	69.0715
295.506	68.8266
294.996	68.6145
294.488	67.961
293.979	67.1059
293.471	66.2646
292.961	65.42614
292.453	64.646
291.943	63.927
291.436	63.3074
290.926	62.80328
290.416	62.3819
289.908	62.1241
289.398	61.9883
288.89	62.0199
288.38	62.2175
287.872	62.5123
287.362	63.0911
286.851	63.6751
286.343	64.3379
285.833	64.9471
285.325	65.3963
284.815	65.0683
284.304	64.8953
283.796	64.6692
283.286	64.4984
282.777	64.3691
282.267	64.3162
281.7565	64.3073
281.248	64.2569
280.738	64.24604
280.227	64.1903
279.719	64.1542
279.208	64.0909
278.697	63.9849
278.189	63.8657
277.678	63.60685
277.168	63.35294
276.657	62.89616
276.148	62.4445
275.637	61.7849
275.127	60.6882
274.618	60.0924
274.1069	59.5782
273.596	59.7725
273.085	59.7358
272.576	59.8273
272.065	60.02573
271.554	60.306
271.043	60.6712
270.534	61.2326
270.023	61.9705
269.512	62.8237
269.001	63.4232
268.492	63.1636
267.981	62.0786
267.469	60.3278
266.958	57.3039
266.447	55.8176
265.938	55.0435
265.426	54.6251
264.915	54.5316
264.403	57.426
263.892	58.7112
263.381	58.7018
262.871	57.1332
262.36	56.7407
261.848	56.4836
261.337	56.2712
260.825	56.1043
260.313	55.94519
259.802	55.6054
259.292	55.3068
258.78	55.5991
258.269	56.2958
257.757	56.99482
257.245	57.494
256.733	57.7226
256.221	57.7592
255.709	57.5562
255.198	57.0381
254.686	56.0821
254.174	55.94865
253.662	56.0081
253.1517	56.4934
252.64	56.8215
252.128	57.1675
251.615	57.4561
251.103	57.7302
250.591	57.95388
250.079	58.1465
249.567	58.27433
249.054	58.3783
248.542	58.4504
248.03	58.4711
247.518	58.4835
247.0052	58.38023
246.493	58.3294
245.98	58.2834
245.468	58.19302
244.955	58.1317
244.443	58.0136
243.93	57.94537
243.418	57.8169
242.905	57.7399
242.391	57.6098
241.8779	57.5068
241.365	57.4086
240.853	57.2314
240.34	57.0872
239.827	56.898
239.314	56.69017
238.801	56.4282
238.289	56.1783
237.7757	55.7493
237.2628	55.297
236.748	54.8372
236.2348	54.1456
235.722	53.7311
235.2088	53.3057
234.696	52.9606
234.183	52.7264
233.67	53.0274
233.154	53.4696
232.641	53.9703
232.128	54.5444
231.615	55.1465
231.102	55.7463
230.588	56.28326
230.073	56.7194
229.56	57.4335
229.046	57.2814
228.533	56.9989
228.019	56.6782
227.504	56.3144
226.99	55.9366
226.477	55.5588
225.963	55.1797
225.45	54.7915
224.9341	54.5123
224.42	54.1748
223.907	53.87545
223.393	53.587
222.877	53.2961
222.364	53.0365
221.85	52.7672
221.334	52.5372
220.82	52.308
220.306	52.111
219.792	51.9315
219.276	51.7698
218.763	51.6483
218.2486	51.52179
217.7325	51.4446
217.218	51.3504
216.704	51.2923
216.188	51.2275
215.674	51.18
215.16	51.1437
214.6438	51.1183
214.13	51.11034
213.6154	51.1091
213.099	51.1295
212.585	51.1597
212.07	51.2008
211.554	51.2295
211.0397	51.31562
210.523	51.4287
210.0088	51.5337
209.494	51.6614
208.978	51.789
208.463	51.91275
207.947	52.0503
207.4321	52.1241
206.918	52.1869
206.4008	52.0526
205.886	51.2643
205.369	50.69701
204.855	50.1059
204.338	49.5677
203.8231	49.4176
203.306	50.685
202.791	51.4741
202.277	52.0055
201.7596	52.2754
201.245	52.2788
200.728	52.1879
200.213	52.0784
199.696	51.9779
199.1806	51.8978
198.663	51.8209
198.148	51.7558
197.631	51.6932
197.114	51.6625
196.5988	51.6382
196.0815	51.6693
195.5663	51.6964
195.049	51.67572
194.534	51.80835
194.016	51.986
193.501	52.1889
192.983	52.3976
192.468	52.5971
191.951	52.812
191.433	52.9782
190.918	53.18185
190.4	53.26075
189.884	53.4142
189.367	53.0392
188.849	52.49374
188.333	51.9402
187.816	51.4605
187.3	50.8988
186.782	50.5652
186.264	50.2371
185.749	49.9968
185.231	50.0801
184.7128	50.0306
184.197	50.0533
183.679	50.0874
183.161	50.14399
182.645	50.2228
182.127	50.15258
181.609	50.05389
181.093	49.8187
180.575	49.597
180.057	49.428
179.54	49.2236
179.022	49.004
178.504	48.8775
177.986	48.7518
177.469	48.7496
176.951	48.7504
176.433	49.1526
175.914	49.52985
175.3979	49.9355
174.879	50.4096
174.361	50.616
173.842	50.6617
173.326	50.16655
172.807	49.8635
172.289	49.5639
171.77	49.32679
171.254	49.163
170.735	48.9635
170.216	49.14151
169.697	49.3656
169.179	49.6461
168.662	49.9196
168.143	50.2349
167.624	50.4849
167.105	50.7569
166.586	50.9935
166.067	51.2591
165.55	51.22451
165.031	51.0362
164.512	50.8147
163.9933	50.5474
163.4742	50.2743
162.955	49.9502
162.4359	49.68829
161.9167	49.5127
161.3996	49.3005
160.88	49.0972
160.361	49.1145
159.842	49.3251
159.3224	49.60601
158.803	49.861
158.284	50.0527
157.764	50.3821
157.245	50.484
156.725	50.6003
156.206	50.6533
155.686	50.7195
155.169	50.5165
154.649	50.4307
154.13	50.3435
153.61	50.14093
153.09	49.9785
152.57	50.0095
152.051	50.038
151.531	50.0869
151.011	50.1491
150.491	50.2127
149.971	50.31139
149.452	50.3818
148.932	50.5077
148.412	50.66972
147.892	50.80505
147.372	50.8885
146.8517	50.8798
146.332	50.8841
145.812	50.7989
145.289	50.6934
144.769	50.2925
144.249	49.9963
143.729	49.4889
143.209	49.0609
142.688	48.5879
142.168	48.1247
141.648	47.6959
141.127	47.27158
140.607	46.8804
140.086	47.1565
139.566	47.61224
139.046	48.2802
138.523	49.3096
138.002	50.7899