File: bartels lab/3642 MoS2 on 1012 WG/raman1_dominic/R1_c1/3642 waveguide 2881x 2304y Raman 1800 d1 t2 100x.txt
650.268	75.063
649.786	75.8137
649.306	74.71299
648.823	73.0594
648.343	71.026
647.863	71.2228
647.38	71.7446
646.9	72.4692
646.417	73.0932
645.937	73.7901
645.4541	73.5956
644.974	73.2144
644.491	72.6562
644.01	72.0842
643.528	71.25354
643.047	71.2729
642.564	71.4448
642.084	71.6555
641.601	71.942
641.12	72.2285
640.637	72.5627
640.156	72.8884
639.674	73.2119
639.193	73.5461
638.71	73.7477
638.227	73.96212
637.746	74.15152
637.263	74.3563
636.782	74.5509
636.299	74.7421
635.818	74.9243
635.335	75.0999
634.852	75.2571
634.371	75.406
633.887	75.5372
633.406	75.6603
632.9231	75.7646
632.44	75.8895
631.959	75.938
631.475	75.96006
630.992	75.9933
630.511	76.0166
630.027	76.0218
629.544	76.0056
629.0625	75.9647
628.579	75.87394
628.096	75.764
627.614	75.6874
627.131	75.7622
626.647	76.23745
626.163	76.7543
625.682	77.2043
625.198	77.56324
624.7146	77.8127
624.233	77.9506
623.749	78.0495
623.2655	78.0042
622.782	77.8519
622.3	77.6756
621.816	77.4391
621.332	77.1773
620.849	76.8705
620.367	76.5563
619.883	76.1643
619.3988	75.7656
618.915	75.3358
618.431	74.9641
617.949	75.0481
617.465	75.4893
616.981	76.1037
616.4967	76.4916
616.013	76.75885
615.528	76.9971
615.046	77.1236
614.562	77.26741
614.078	77.219
613.594	77.06636
613.109	76.8029
612.625	76.5154
612.141	76.1664
611.656	75.7554
611.174	75.3844
610.69	75.0196
610.205	74.70079
609.721	74.427
609.236	74.2266
608.752	74.1428
608.267	74.5118
607.783	74.6333
607.298	74.7202
606.814	74.477
606.329	72.6998
605.844	71.6433
605.36	70.9237
604.875	70.3326
604.39	69.8931
603.9054	69.6078
603.421	69.4756
602.936	69.5859
602.451	69.9234
601.966	70.6966
601.4812	71.69976
600.996	72.2681
600.511	72.7281
600.026	73.1868
599.541	73.5841
599.0564	73.9144
598.571	74.2764
598.0863	74.47641
597.6012	74.5469
597.116	74.522
596.631	74.3669
596.146	74.0078
595.661	73.6444
595.175	73.2447
594.69	72.8435
594.205	72.5034
593.717	72.1547
593.232	71.9118
592.747	71.7255
592.261	71.8217
591.776	71.8321
591.291	71.9037
590.805	72.2376
590.32	72.648
589.832	73.08609
589.347	73.5294
588.861	73.9367
588.375	74.3402
587.89	74.7463
587.404	74.9802
586.9165	75.1268
586.431	74.7545
585.945	74.3545
585.459	73.9428
584.974	73.5145
584.486	73.08979
584	72.7064
583.5141	72.2818
583.0282	71.9559
582.54	71.8135
582.054	71.65564
581.568	71.6668
581.082	71.7106
580.594	71.8116
580.1084	71.964
579.622	72.1999
579.136	72.49366
578.648	72.6227
578.162	72.7347
577.676	72.825
577.188	72.916
576.701	72.8781
576.215	72.8321
575.727	72.83226
575.2406	72.8066
574.754	72.7873
574.266	72.7752
573.7796	72.7826
573.293	72.7497
572.805	72.7491
572.3183	72.7109
571.832	72.6867
571.343	72.6471
570.857	72.6146
570.368	72.5624
569.882	72.521
569.395	72.4629
568.906	72.4125
568.42	72.3678
567.931	72.327
567.444	72.306
566.958	72.2869
566.469	72.2976
565.982	72.2995
565.493	72.3524
565.006	72.3605
564.517	72.33065
564.031	72.3382
563.542	72.32373
563.055	72.32019
562.568	72.3278
562.079	72.3411
561.592	72.3641
561.103	72.4272
560.6156	72.4592
560.126	72.549
559.639	72.5865
559.15	72.831
558.661	73.0825
558.174	73.3799
557.685	73.6993
557.197	74.1528
556.708	74.86689
556.221	75.37468
555.731	75.822
555.244	76.2664
554.755	76.68428
554.265	77.0053
553.778	77.139
553.288	77.1272
552.801	77.15773
552.311	77.0094
551.822	76.8693
551.334	76.69632
550.844	76.5488
550.357	76.36615
549.867	76.27684
549.377	76.1985
548.89	76.2132
548.4	76.56
547.91	77.0689
547.422	77.7479
546.933	78.4106
546.443	79.2161
545.955	80.0846
545.465	81.1446
544.975	82.2445
544.487	83.2985
543.997	84.2746
543.507	84.8905
543.019	84.8973
542.529	84.837
542.039	84.5379
541.549	83.9746
541.061	83.24231
540.5705	82.0032
540.08	81.4744
539.59	81.47702
539.102	81.87587
538.612	82.4971
538.121	83.3971
537.631	84.74305
537.141	85.9486
536.652	86.7692
536.1618	87.6187
535.671	88.5343
535.181	89.6229
534.69	90.7206
534.202	91.95536
533.711	93.2305
533.221	94.1582
532.73	95.0875
532.24	96.6537
531.751	98.6973
531.26	101.151
530.77	104.093
530.279	107.476
529.788	111.517
529.297	114.745
528.807	119.134
528.316	124.018
527.8269	130.773
527.336	138.173
526.845	148.6259
526.354	160.449
525.863	180.178
525.372	202.857
524.881	232.877
524.3902	277.379
523.899	330.773
523.408	400.157
522.917	524.543
522.426	738.105
521.935	1009.39
521.443	1301
520.952	1574
520.461	1731
519.9696	1507
519.478	1282
518.987	992
518.496	721
518.004	515.077
517.513	421.376
517.021	348.6568
516.53	288.758
516.038	243.5677
515.547	204.926
515.055	180.765
514.564	167.4303
514.0722	170.47
513.581	132.934
513.089	141.314
512.597	135.084
512.106	127.998
511.6138	121.3723
511.122	114.812
510.63	109.929
510.138	107.216
509.645	103.9738
509.153	101.846
508.661	98.5696
508.169	95.942
507.677	93.2581
507.185	91.1891
506.693	89.7401
506.201	88.9165
505.707	88.3854
505.215	88.0893
504.723	87.883
504.231	87.705
503.738	87.5303
503.246	87.3786
502.752	87.1401
502.2598	86.6116
501.768	85.851
501.275	84.7933
500.783	83.1022
500.289	81.9587
499.796	80.9726
499.3038	80.1097
498.811	79.2375
498.317	78.6
497.824	78.1778
497.332	77.8436
496.839	77.5389
496.345	77.2111
495.852	76.6755
495.36	76.1931
494.867	75.8036
494.372	75.3873
493.88	75.2978
493.3869	75.1971
492.892	75.14286
492.399	75.0929
491.907	75.08725
491.412	75.0813
490.919	75.0806
490.426	75.0887
489.931	75.0589
489.438	75.0474
488.945	74.9637
488.45	74.9774
487.957	74.8151
487.464	74.9015
486.969	74.5793
486.476	74.2773
485.983	73.9211
485.488	73.5449
484.994	73.1514
484.499	72.7708
484.006	72.38018
483.513	72.042
483.017	71.6988
482.524	71.3864
482.029	71.1095
481.535	70.831
481.04	70.8723
480.547	70.7344
480.053	70.6477
479.558	70.5733
479.064	70.5318
478.569	70.5185
478.075	70.51
477.58	70.5538
477.086	70.5334
476.59	70.6542
476.097	70.6575
475.601	70.8801
475.107	71.1133
474.611	71.38427
474.118	71.774
473.622	72.1316
473.128	72.4147
472.6322	72.6654
472.138	72.9248
471.6424	73.1731
471.146	73.3992
470.653	73.642
470.156	73.7766
469.663	73.6236
469.166	73.6765
468.672	73.68325
468.1763	73.7336
467.68	73.7829
467.186	73.9562
466.69	74.2224
466.196	74.4331
465.6994	74.7351
465.203	74.9593
464.709	75.1782
464.213	75.3707
463.716	75.5181
463.222	75.6378
462.7254	75.7234
462.231	75.743
461.735	75.72728
461.238	75.5769
460.744	74.9847
460.247	74.3703
459.75	73.6187
459.254	72.6809
458.759	71.931
458.263	73.2107
457.766	73.7088
457.2713	74.4383
456.775	75.2028
456.2778	75.9654
455.783	76.5337
455.286	76.9753
454.7894	76.1167
454.293	76.3508
453.7977	76.76165
453.301	76.7716
452.8038	76.7726
452.307	76.8235
451.81	76.8522
451.315	76.8351
450.818	76.8479
450.321	76.82917
449.824	76.86615
449.329	76.9985
448.831	77.5658
448.334	77.2983
447.837	76.7522
447.34	76.1619
446.842	75.7622
446.347	75.7073
445.85	75.7161
445.352	75.8082
444.8551	75.8298
444.3577	75.7825
443.86	75.4387
443.363	75.0945
442.867	74.7347
442.37	74.40387
441.872	74.22525
441.375	74.4373
440.877	74.7785
440.379	75.0582
439.882	75.1511
439.384	75.2812
438.886	75.4055
438.389	75.6128
437.891	75.7783
437.395	75.9182
436.897	75.9499
436.3996	75.5634
435.902	75.1012
435.404	74.7279
434.906	74.56115
434.408	74.4802
433.91	74.56115
433.412	74.7732
432.914	75.17157
432.416	75.9255
431.918	76.68486
431.42	77.3799
430.922	77.6193
430.4234	77.7061
429.9252	77.5976
429.427	77.3798
428.929	77.0712
428.43	76.9095
427.932	76.5384
427.434	76.2158
426.935	75.9659
426.435	75.9235
425.937	76.1846
425.4382	76.56279
424.94	77.1005
424.441	77.6189
423.943	78.118
423.444	78.1886
422.946	78.0665
422.447	77.8129
421.948	77.4123
421.45	76.8927
420.949	76.36351
420.45	75.7683
419.952	75.1548
419.453	74.5833
418.954	74.05793
418.4552	73.7784
417.956	73.5319
417.455	73.5292
416.957	73.9006
416.458	75.0418
415.959	75.6706
415.46	76.2075
414.961	76.6023
414.46	76.9205
413.961	77.1243
413.461	77.3057
412.962	77.3645
412.461	77.3914
411.962	77.2469
411.463	76.9422
410.964	76.0125
410.464	75.5097
409.963	75.3748
409.464	75.5939
408.964	77.4558
408.465	79.24575
407.964	80.664
407.464	81.8161
406.965	82.7032
406.463	83.2776
405.964	83.5819
405.464	83.5658
404.9646	83.3156
404.463	82.6903
403.963	81.8257
403.464	80.3561
402.962	78.93689
402.462	77.4287
401.963	76.3355
401.461	75.7072
400.961	75.06012
400.461	74.4997
399.959	74.0297
399.46	73.6347
398.958	73.3093
398.4577	73.0397
397.958	72.8319
397.456	72.6497
396.956	72.5416
396.454	72.4287
395.954	72.4116
395.454	72.3929
394.951	72.4293
394.451	72.508
393.9491	72.6386
393.449	72.7773
392.949	72.8389
392.446	73.2524
391.946	73.6779
391.444	74.1336
390.944	74.5813
390.441	75.137
389.941	75.5359
389.438	75.9219
388.938	76.2747
388.435	76.6122
387.935	76.5172
387.432	76.63398
386.932	76.65966
386.429	76.6713
385.929	76.6967
385.4259	76.6995
384.925	76.6743
384.423	76.6623
383.922	76.5862
383.419	76.5353
382.918	76.4013
382.4155	76.2877
381.915	76.1235
381.4118	75.9395
380.909	75.6894
380.408	75.4322
379.905	75.0286
379.404	74.5101
378.901	73.9599
378.398	73.4126
377.897	72.8177
377.394	72.2726
376.893	71.692
376.39	71.1223
375.886	70.68573
375.385	70.26149
374.882	70.2978
374.379	70.52
373.877	70.8261
373.374	71.1823
372.871	71.61174
372.369	72.0195
371.866	72.6184
371.363	72.8445
370.861	73.0612
370.3577	73.0387
369.854	73.0558
369.353	73.10508
368.849	73.037
368.345	73.0241
367.844	72.9945
367.34	72.9882
366.837	72.9499
366.333	72.9418
365.831	72.9009
365.327	72.893
364.824	72.8613
364.32	72.8657
363.818	72.8565
363.314	72.9596
362.81	73.0692
362.306	73.1842
361.804	73.1387
361.3	73.0414
360.796	72.9784
360.292	72.8575
359.788	72.7708
359.286	72.6381
358.782	72.5356
358.278	72.4069
357.774	72.2898
357.269	72.1849
356.765	72.0347
356.263	71.9918
355.759	71.78717
355.254	71.8797
354.75	71.9648
354.246	72.0897
353.741	72.2376
353.237	72.7957
352.734	73.0896
352.23	73.3443
351.7254	73.6141
351.221	73.833
350.716	74.038
350.2117	74.2433
349.707	74.12188
349.202	73.624
348.698	73.3088
348.193	72.8688
347.688	72.458
347.186	72.0634
346.681	71.6594
346.176	71.2938
345.671	70.9086
345.166	70.5941
344.661	70.2561
344.1564	70.1446
343.651	69.9975
343.146	69.97242
342.641	69.9757
342.136	70.0779
341.631	70.1501
341.126	70.3321
340.621	70.5314
340.116	70.7412
339.611	71.0124
339.106	71.2778
338.6	71.5388
338.095	71.7956
337.59	72.0238
337.084	72.2533
336.577	72.3096
336.072	72.3681
335.566	72.4008
335.061	71.93029
334.555	71.385
334.05	70.687
333.544	70.1201
333.039	69.6464
332.5332	70.0058
332.028	70.5125
331.522	71.663
331.014	73.9669
330.509	75.5095
330.003	75.2402
329.497	74.7258
328.991	72.3124
328.486	70.944
327.98	70.0258
327.474	69.6589
326.966	69.4175
326.46	69.42
325.9541	69.322
325.448	69.269
324.942	69.3915
324.434	70.0974
323.928	70.7947
323.422	71.4842
322.916	71.932
322.41	72.1736
321.902	72.3166
321.395	72.3
320.889	72.1396
320.383	71.8997
319.877	71.6124
319.368	71.4426
318.862	71.2853
318.356	71.4483
317.849	70.8559
317.341	71.5074
316.834	72.4872
316.328	73.6778
315.819	74.9931
315.313	76.37233
314.806	77.6345
314.3	78.6759
313.791	79.3703
313.284	79.7032
312.778	79.7208
312.269	79.4924
311.762	79.016
311.255	78.4157
310.747	77.39949
310.24	76.2284
309.733	75.1589
309.224	74.2804
308.717	73.6995
308.2103	73.3251
307.701	73.1815
307.194	73.339
306.685	73.6385
306.178	74.20649
305.6712	74.8742
305.162	75.7174
304.655	76.6659
304.146	77.6539
303.639	78.7133
303.131	79.7339
302.6221	80.5214
302.115	81.1732
301.6055	81.5085
301.098	81.1807
300.589	80.5821
300.081	79.7733
299.5741	78.4901
299.065	77.1856
298.557	75.9867
298.048	74.92852
297.54	74.0424
297.031	73.3682
296.523	72.92012
296.013	72.4635
295.506	72.678
294.996	72.93502
294.488	73.2844
293.979	73.6079
293.471	73.9545
292.961	74.3385
292.453	74.6756
291.943	74.815
291.436	74.8666
290.926	74.8678
290.416	74.7933
289.908	74.6764
289.398	74.5119
288.89	74.3549
288.38	74.2264
287.872	73.9408
287.362	73.6584
286.851	73.34523
286.343	73.0352
285.833	72.7112
285.325	72.401
284.815	72.0832
284.304	71.7419
283.796	71.4622
283.286	71.064
282.777	70.9022
282.267	70.8085
281.7565	70.8728
281.248	70.8432
280.738	70.877
280.227	71.0169
279.719	71.14286
279.208	71.3848
278.697	71.407
278.189	71.38694
277.678	71.3571
277.168	71.3287
276.657	71.0535
276.148	70.9335
275.637	70.7428
275.127	70.6191
274.618	70.4691
274.1069	70.3363
273.596	70.2553
273.085	70.1088
272.576	70.282
272.065	70.4621
271.554	70.9193
271.043	71.2679
270.534	71.5547
270.023	71.8284
269.512	72.0581
269.001	72.1708
268.492	72.2237
267.981	71.8579
267.469	71.5394
266.958	70.949
266.447	70.3518
265.938	69.7377
265.426	69.12323
264.915	68.5226
264.403	67.9335
263.892	67.3596
263.381	66.8583
262.871	66.6983
262.36	66.7783
261.848	66.9951
261.337	67.4662
260.825	67.9085
260.313	68.4612
259.802	69.0099
259.292	69.5515
258.78	70.057
258.269	70.5563
257.757	70.6946
257.245	70.8401
256.733	70.9181
256.221	70.8414
255.709	70.6009
255.198	70.1612
254.686	69.4518
254.174	68.6709
253.662	67.8411
253.1517	67.1047
252.64	66.4381
252.128	66.52684
251.615	66.4104
251.103	66.3759
250.591	66.392
250.079	66.40303
249.567	66.5981
249.054	66.9569
248.542	67.49044
248.03	68.0941
247.518	68.7967
247.0052	69.4844
246.493	70.0814
245.98	70.5975
245.468	70.8728
244.955	71.0264
244.443	71.032
243.93	70.9832
243.418	70.9377
242.905	70.8224
242.391	70.7766
241.8779	70.7066
241.365	70.4647
240.853	70.1434
240.34	69.7126
239.827	69.3962
239.314	69.1987
238.801	68.9438
238.289	68.6911
237.7757	68.3505
237.2628	67.8349
236.748	67.3206
236.2348	66.8881
235.722	66.4886
235.2088	66.141
234.696	65.9946
234.183	65.8199
233.67	65.6936
233.154	65.6152
232.641	65.5889
232.128	65.6346
231.615	65.6782
231.102	65.6252
230.588	65.8295
230.073	66.021
229.56	66.2301
229.046	66.4314
228.533	66.627
228.019	66.8037
227.504	66.98497
226.99	67.1025
226.477	67.2439
225.963	67.335
225.45	67.3642
224.9341	67.3943
224.42	67.3337
223.907	67.0775
223.393	66.7751
222.877	66.329
222.364	65.8534
221.85	65.29689
221.334	64.7686
220.82	64.2663
220.306	63.7586
219.792	63.2673
219.276	62.7803
218.763	62.2973
218.2486	61.89859
217.7325	61.4503
217.218	61.23428
216.704	61.2651
216.188	61.3921
215.674	61.4738
215.16	61.6364
214.6438	61.8449
214.13	62.0507
213.6154	62.2735
213.099	62.7459
212.585	62.8777
212.07	62.9839
211.554	63.0704
211.0397	63.1632
210.523	62.9608
210.0088	62.8317
209.494	62.7559
208.978	62.6588
208.463	62.5655
207.947	62.4709
207.4321	62.4449
206.918	62.3567
206.4008	62.2549
205.886	62.1575
205.369	62.04076
204.855	61.9983
204.338	61.9162
203.8231	61.90448
203.306	61.7278
202.791	61.5587
202.277	61.383
201.7596	61.22533
201.245	61.0575
200.728	60.9216
200.213	60.75037
199.696	60.5952
199.1806	60.45285
198.663	60.3216
198.148	60.2227
197.631	60.1264
197.114	60.07848
196.5988	60.02726
196.0815	60.0366
195.5663	60.0432
195.049	60.1152
194.534	60.39703
194.016	60.5661
193.501	60.7778
192.983	61.1079
192.468	61.504
191.951	62.0017
191.433	62.4339
190.918	62.8811
190.4	63.302
189.884	63.6509
189.367	64.0658
188.849	64.3357
188.333	64.3734
187.816	63.89146
187.3	63.6602
186.782	63.3436
186.264	63.0012
185.749	62.6805
185.231	62.3414
184.7128	62.0309
184.197	61.6781
183.679	61.4959
183.161	61.503
182.645	61.5109
182.127	61.5241
181.609	61.60413
181.093	61.70311
180.575	61.9499
180.057	62.0202
179.54	62.09885
179.022	62.1498
178.504	62.2196
177.986	62.22049
177.469	62.0189
176.951	61.82436
176.433	61.9108
175.914	61.9816
175.3979	62.097
174.879	62.1949
174.361	62.3131
173.842	62.5396
173.326	62.6534
172.807	62.7323
172.289	62.7973
171.77	62.7679
171.254	62.7979
170.735	62.7731
170.216	62.4969
169.697	62.1064
169.179	61.6416
168.662	61.2205
168.143	60.7642
167.624	60.3372
167.105	59.753
166.586	59.4968
166.067	59.2694
165.55	59.0378
165.031	59.1497
164.512	59.21611
163.9933	59.2246
163.4742	59.2643
162.955	59.2989
162.4359	59.3464
161.9167	59.4193
161.3996	59.4872
160.88	59.5196
160.361	59.5778
159.842	59.5919
159.3224	59.6363
158.803	59.6487
158.284	59.5725
157.764	59.6073
157.245	59.5674
156.725	59.4906
156.206	59.4274
155.686	59.3402
155.169	59.2589
154.649	59.1679
154.13	59.0774
153.61	58.9857
153.09	58.90163
152.57	58.8328
152.051	58.7668
151.531	58.69939
151.011	58.6676
150.491	58.55426
149.971	58.777
149.452	59.0758
148.932	59.3966
148.412	59.8639
147.892	60.3405
147.372	60.6693
146.8517	61.0369
146.332	61.3158
145.812	61.47
145.289	61.0611
144.769	60.66745
144.249	60.1604
143.729	59.5216
143.209	58.8437
142.688	58.03207
142.168	57.1707
141.648	56.2345
141.127	55.2718
140.607	54.4081
140.086	54.1755
139.566	56.8758
139.046	60.2108
138.523	62.3525
138.002	65.778