File: bartels lab/3642 MoS2 on 1012 WG/Raman_5_21_2015_Dominic/C3_R2/3642 8432x 3294y PL 600 T2 D1 100x.txt
1.7708	2940.4
1.77093	2944.905
1.77106	2950.53
1.77119	2958.13
1.77132	2971.46
1.771448	2981.35
1.77158	2988.91
1.77171	2998.33
1.771839	3007.62
1.77197	3017.81
1.7721	3029.05
1.77223	3040.4
1.77236	3053.08
1.77249	3064.81
1.77262	3076.02
1.77275	3087.9
1.77288	3097.16
1.77301	3106.6
1.77314	3115.98
1.77327	3123.4
1.77341	3131.52
1.77354	3136.62
1.77367	3142.98
1.773797	3149.11
1.77393	3153.675
1.77406	3154.15
1.77419	3155.73
1.77432	3158.87
1.77445	3162.272
1.77458	3167.07
1.77471	3172.68
1.77484	3178.58
1.77497	3185.39
1.775105	3188.91
1.77524	3194.64
1.77537	3199.9
1.7755	3205.97
1.77563	3214.56
1.77576	3225.73
1.77589	3236.59
1.77602	3248.43
1.77615	3262.04
1.77628	3276.73
1.776415	3291.9
1.77655	3303.59
1.77668	3313.12
1.77681	3323.001
1.77694	3329.49
1.77707	3335.24
1.777202	3340.23
1.77733	3345.86
1.77746	3349.12
1.777596	3353.365
1.77773	3358.86
1.77786	3365.42
1.77799	3369.05
1.77812	3371.375
1.77825	3374.73
1.77838	3379.73
1.77852	3387.57
1.77865	3396.67
1.77878	3405.69
1.77891	3415.61
1.77904	3425.43
1.77917	3436.05
1.7793	3443.97
1.77944	3453.03
1.77957	3460.83
1.7797	3469.229
1.77983	3477.05
1.77996	3482.81
1.78009	3489.08
1.780226	3498.69
1.78036	3507.927
1.78049	3517.26
1.78062	3525.36
1.780753	3533.68
1.78088	3542.18
1.78102	3550.92
1.78115	3559.28
1.78128	3566
1.78141	3571.33
1.78154	3576.27
1.78168	3579.25
1.78181	3582.94
1.78194	3586.65
1.78207	3592.71
1.782204	3602.71
1.78234	3611.81
1.78247	3622.77
1.7826	3632.52
1.78273	3643.59
1.78286	3659
1.783	3671.51
1.78313	3684.41
1.78326	3700.4
1.78339	3707.64
1.78353	3714.02
1.78366	3718.09
1.78379	3717.44
1.78392	3718.68
1.78405	3719.82
1.784187	3720.42
1.78432	3724.18
1.78445	3731.15
1.784584	3739.95
1.78472	3750.7
1.784849	3765.06
1.78498	3778.55
1.78511	3796.58
1.78525	3806.447
1.78538	3818.16
1.78551	3826.41
1.78564	3836.105
1.78578	3842.55
1.78591	3852.01
1.78604	3861.38
1.78617	3870.36
1.78631	3881.07
1.78644	3889.97
1.78657	3897.97
1.78671	3908.937
1.78684	3919.26
1.786971	3929.88
1.7871	3943.25
1.78724	3956.68
1.78737	3969.54
1.7875	3981.82
1.78764	3991.81
1.78777	4002.71
1.7879	4013.83
1.78803	4023.92
1.78817	4032.55
1.7883	4042.259
1.788433	4050.77
1.788566	4058.84
1.788699	4067.26
1.78883	4076.95
1.78897	4086.16
1.7891	4097.82
1.78923	4111.6
1.78936	4125.44
1.789498	4137.603
1.78963	4148.39
1.78976	4160.13
1.7899	4169.59
1.790031	4179.26
1.79016	4191.47
1.7903	4204.48
1.79043	4217.74
1.79056	4230.16
1.7907	4242.22
1.79083	4252.17
1.79096	4263.41
1.7911	4271.82
1.79123	4284.58
1.79136	4298.875
1.7915	4314.04
1.79163	4328.53
1.79177	4343.89
1.791899	4362.15
1.79203	4382.7
1.79217	4400.41
1.7923	4416.43
1.79243	4432.32
1.79257	4449.99
1.792701	4467.13
1.79283	4483.11
1.79297	4496.74
1.793102	4509.73
1.79324	4520.01
1.79337	4531.335
1.7935	4539.76
1.79364	4548.17
1.79377	4556.6
1.79391	4569.2
1.79404	4581.88
1.794173	4596.68
1.794307	4611.16
1.794441	4625.43
1.79458	4644.97
1.794709	4666.37
1.794843	4679.52
1.79498	4699.3
1.79511	4719.87
1.79525	4741.31
1.79538	4762.58
1.79551	4785.29
1.79565	4805.23
1.79578	4825.4
1.79592	4846.44
1.79605	4862.43
1.79618	4877.33
1.796319	4889.79
1.79645	4899.65
1.79659	4907.53
1.79672	4916.6
1.79686	4928.06
1.79699	4940.14
1.79713	4955.22
1.79726	4970.88
1.797394	4989.77
1.79753	5010.394
1.79766	5034.77
1.7978	5066.26
1.79793	5082.55
1.79807	5094.28
1.7982	5111.1
1.79834	5126.88
1.79847	5143.89
1.79861	5161.66
1.79874	5181.17
1.79887	5202.46
1.79901	5221.57
1.79914	5239.68
1.79928	5255.73
1.79941	5270.68
1.79955	5283.53
1.79968	5295.95
1.799818	5307.52
1.79995	5320.05
1.80009	5336.4
1.80022	5353.67
1.80036	5367.64
1.80049	5382.439
1.80063	5399.77
1.80076	5417.8
1.8009	5435.876
1.80103	5453.36
1.80117	5470.2
1.8013	5490.729
1.80144	5510.29
1.80157	5528.45
1.80171	5546.45
1.80184	5561.06
1.80198	5572.57
1.80211	5581.57
1.802249	5591.23
1.80238	5599.34
1.80252	5609.64
1.80265	5622.52
1.80279	5633.88
1.80293	5643.05
1.80306	5653.81
1.8032	5665.603
1.80333	5676.85
1.80347	5686.64
1.8036	5695.228
1.803738	5706.36
1.80387	5719
1.80401	5730.19
1.80414	5740.835
1.80428	5751.584
1.80442	5763.73
1.80455	5778.08
1.804687	5795.647
1.80482	5809.77
1.80496	5826.67
1.805094	5841.07
1.80523	5858.07
1.80537	5873.95
1.8055	5887.333
1.80564	5900.85
1.80577	5913.145
1.80591	5923.46
1.80604	5932.52
1.80618	5944.41
1.80632	5953.51
1.80645	5963.33
1.80659	5975.36
1.80672	5987.458
1.80686	5999.16
1.807	6012.22
1.80713	6024.79
1.80727	6036.52
1.8074	6050.92
1.80754	6062.72
1.80768	6077.45
1.80781	6093.78
1.80795	6106.06
1.808085	6114.54
1.80822	6118.82
1.80836	6124.33
1.80849	6132.27
1.80863	6141.88
1.80877	6154.26
1.8089	6171.54
1.80904	6192.81
1.80918	6214.9
1.80931	6233.8
1.809448	6251.54
1.80958	6273.98
1.80972	6295.19
1.80986	6314.85
1.80999	6334.43
1.81013	6353.56
1.81027	6369.84
1.8104	6383.37
1.81054	6397.91
1.81068	6414.01
1.81081	6429.64
1.81095	6441.82
1.81109	6452.749
1.81122	6464.45
1.81136	6478.22
1.8115	6491.71
1.81163	6505.24
1.81177	6517.89
1.81191	6531.47
1.81204	6549.22
1.81218	6570.43
1.81232	6596.79
1.81245	6623.87
1.81259	6652.35
1.81273	6683.06
1.81287	6712.42
1.813	6742.36
1.81314	6773.76
1.81328	6802.63
1.81341	6832.33
1.81355	6857.89
1.81369	6885.33
1.81382	6910.543
1.81396	6930.82
1.8141	6950.05
1.814236	6966.63
1.81437	6980.92
1.81451	6995.61
1.81465	7011.42
1.814785	7032.22
1.81492	7052.86
1.81506	7078.98
1.815197	7112.35
1.81533	7144.07
1.81547	7175.11
1.815609	7209.895
1.81575	7247.26
1.81588	7281.26
1.81602	7314.78
1.81616	7346.061
1.8163	7374.23
1.816434	7400.04
1.81657	7427.43
1.81671	7454.42
1.81685	7474.63
1.81698	7498.06
1.81712	7525.57
1.81726	7553.86
1.8174	7586.418
1.81753	7619.76
1.81767	7648.43
1.81781	7678.21
1.81795	7708.41
1.818086	7739.69
1.818224	7771.79
1.81836	7805.06
1.8185	7841.47
1.81864	7875.36
1.81878	7907.14
1.81891	7935.1
1.81905	7960.53
1.81919	7990.05
1.81933	8020.17
1.81947	8057.49
1.8196	8089.82
1.81974	8124.7
1.81988	8152.58
1.82002	8179.064
1.82016	8199.73
1.82029	8218.34
1.82043	8240.34
1.82057	8260.41
1.82071	8280.36
1.82085	8296.665
1.82099	8312.13
1.82112	8324.98
1.82126	8342.61
1.8214	8358.08
1.82154	8376.03
1.82168	8397.47
1.82182	8423.33
1.82195	8448.28
1.82209	8476.54
1.82223	8510.69
1.822369	8542.51
1.82251	8574.82
1.82265	8606.76
1.82278	8634.63
1.82292	8661.11
1.82306	8685.84
1.8232	8710.53
1.82334	8730.73
1.82348	8749.02
1.82362	8763.64
1.82376	8781.29
1.823894	8798.17
1.82403	8817.01
1.82417	8830.79
1.82431	8845.86
1.82445	8862.1
1.82459	8877
1.82473	8890.99
1.82487	8910.78
1.825	8930.18
1.82514	8949.85
1.82528	8970.752
1.82542	8987.25
1.82556	9001.35
1.8257	9014.93
1.82584	9032.89
1.825978	9050.1
1.826117	9065.77
1.82626	9080.23
1.8264	9096.22
1.82653	9110.002
1.82667	9124.835
1.82681	9136.14
1.82695	9147.09
1.82709	9158.1
1.82723	9170.63
1.82737	9180.62
1.82751	9194.19
1.82765	9209.98
1.82779	9224.27
1.82793	9238.5
1.82807	9257.98
1.82821	9272.84
1.82835	9289.26
1.82849	9309.16
1.828625	9327.876
1.82876	9340.165
1.8289	9353.78
1.82904	9368.57
1.82918	9387.44
1.82932	9402.87
1.82946	9418.24
1.8296	9434.459
1.82974	9451.56
1.82988	9468.23
1.83002	9483.8
1.830161	9499.4
1.8303	9516.35
1.83044	9532.94
1.83058	9548.22
1.83072	9557.76
1.83086	9569.69
1.831	9585.47
1.83114	9604.79
1.83128	9624.34
1.83142	9641.59
1.83156	9662.02
1.8317	9681.42
1.83184	9704.87
1.83198	9723.83
1.83212	9741.4
1.83226	9760.4
1.8324	9782.19
1.83254	9804.38
1.83268	9824.85
1.83282	9847.07
1.83296	9868.916
1.8331	9890.17
1.83324	9917.002
1.83338	9941.22
1.83352	9966.98
1.83366	9996.584
1.8338	10026.846
1.83394	10053.961
1.83408	10080.451
1.83422	10104.473
1.83436	10129.333
1.83451	10154.947
1.83465	10181.118
1.83479	10200.682
1.83493	10222.042
1.83507	10241.898
1.83521	10263.783
1.83535	10290.19
1.83549	10315.396
1.83563	10342.246
1.83577	10371.292
1.83591	10400.313
1.83605	10429.61
1.83619	10454.83
1.83633	10489.41
1.83647	10518.722
1.83662	10539.654
1.836756	10558.053
1.8369	10574.774
1.83704	10584.906
1.83718	10600.95
1.83732	10621.615
1.83746	10643.032
1.8376	10663.111
1.83774	10688.279
1.83788	10713.82
1.83802	10743.011
1.83817	10772.673
1.83831	10801.972
1.838448	10831.785
1.83859	10857.297
1.83873	10881.826
1.83887	10905.333
1.83901	10926.481
1.83915	10949.419
1.8393	10973.674
1.83944	10986.042
1.83958	11002.157
1.83972	11020.407
1.83986	11034.764
1.84	11055.526
1.84014	11072.754
1.84028	11090.604
1.84043	11103.595
1.84057	11121.699
1.84071	11140.677
1.84085	11157.804
1.84099	11173.139
1.84113	11193.044
1.84128	11215.987
1.841417	11237.604
1.84156	11253.346
1.8417	11266.367
1.84184	11273.798
1.84198	11282.504
1.84213	11291.873
1.842267	11302.725
1.84241	11316.31
1.84255	11327.929
1.84269	11330.313
1.84283	11334.772
1.84298	11335.54
1.84312	11340.929
1.84326	11351.908
1.8434	11365.775
1.84354	11377.896
1.84369	11386.443
1.84383	11397.534
1.84397	11410.78
1.844112	11419.101
1.844254	11424.783
1.8444	11427.942
1.84454	11429.675
1.84468	11431.882
1.84482	11430.123
1.84496	11435.684
1.84511	11431.067
1.84525	11423.88
1.84539	11411.052
1.84553	11396.907
1.84568	11383.529
1.84582	11371.55
1.84596	11361.312
1.8461	11353.548
1.84625	11345.1
1.846388	11342.981
1.84653	11347.465
1.84667	11350.617
1.84682	11356.464
1.84696	11361.86
1.8471	11362.796
1.84724	11357.067
1.84739	11346.098
1.84753	11332.076
1.84767	11318.626
1.84781	11312.437
1.84796	11308.024
1.8481	11312.924
1.84824	11319.416
1.84838	11322.427
1.84853	11330.019
1.84867	11332.684
1.84881	11334.56
1.84896	11336.742
1.8491	11337.683
1.84924	11338.09
1.84938	11339.186
1.84953	11333.962
1.84967	11327.702
1.84981	11320.052
1.84996	11308.78
1.8501	11291.262
1.85024	11272.507
1.85039	11258.678
1.85053	11246.62
1.85067	11233.188
1.85081	11221.224
1.85096	11210.893
1.8511	11198.863
1.85124	11181.836
1.85139	11168.203
1.85153	11158.824
1.85167	11152.622
1.85182	11148.985
1.851961	11147.987
1.8521	11143.611
1.85225	11138.822
1.852391	11137.137
1.85253	11134.946
1.85268	11129.697
1.85282	11123.591
1.852965	11116.619
1.85311	11117.672
1.85325	11115.358
1.8534	11108.27
1.85354	11101.106
1.85368	11091.176
1.85383	11078.735
1.85397	11065.605
1.85411	11054.453
1.85426	11039.793
1.8544	11027.104
1.85455	11015.077
1.854689	11003.502
1.85483	10996.005
1.85498	10986.09
1.85512	10968.584
1.85526	10952.011
1.85541	10937.987
1.85555	10925.125
1.8557	10911.914
1.85584	10895.884
1.85598	10875.413
1.85613	10851.106
1.85627	10826.567
1.85642	10809.777
1.85656	10784.982
1.8567	10771.405
1.85685	10756.766
1.856993	10746.057
1.85714	10736.153
1.85728	10734.197
1.85743	10733.819
1.85757	10729.044
1.85771	10721.264
1.85786	10710.527
1.858	10694.461
1.85815	10676.054
1.85829	10652.386
1.858436	10633.219
1.85858	10612.354
1.85872	10587.963
1.85887	10564.197
1.85901	10541.52
1.85916	10520.392
1.8593	10498.534
1.85945	10476.674
1.85959	10476.516
1.85974	10458.582
1.85988	10439.241
1.860026	10420.14
1.86017	10399.777
1.86032	10380.419
1.86046	10356.982
1.860605	10329.684
1.86075	10303.244
1.86089	10276.291
1.86104	10249.085
1.86118	10219.344
1.86133	10188.767
1.86147	10157.878
1.86162	10130.122
1.86176	10103.937
1.86191	10076.988
1.862054	10054.046
1.8622	10032.401
1.86234	10016.761
1.86249	9999.56
1.86263	9985.58
1.86278	9972.832
1.86292	9955.43
1.86307	9941.751
1.86322	9925.45
1.86336	9911.98
1.86351	9895.79
1.86365	9873.75
1.8638	9847.91
1.86394	9821.07
1.86409	9794.89
1.86423	9767.59
1.86438	9739.59
1.86452	9712.6
1.86467	9679.29
1.86481	9642.93
1.86496	9606.81
1.8651	9571.88
1.86525	9537.17
1.865396	9506.333
1.86554	9479.48
1.86569	9452.75
1.86583	9427.99
1.86598	9406.98
1.86612	9391.93
1.86627	9371.66
1.86642	9352.88
1.86656	9331.66
1.86671	9314.97
1.866853	9298.98
1.867	9281.55
1.86714	9261.05
1.86729	9234.43
1.86744	9198.43
1.86758	9170.76
1.86773	9153.91
1.86787	9111.78
1.86802	9071.77
1.86817	9036.28
1.86831	9004.749
1.86846	9009.667
1.8686	8997.07
1.86875	8977.74
1.8689	8959.59
1.86904	8946.48
1.869189	8929.082
1.86934	8917.54
1.86948	8904.24
1.86963	8890.03
1.86977	8878.86
1.86992	8860.03
1.87007	8835.34
1.870213	8805
1.87036	8768.8
1.87051	8728.502
1.87065	8684.543
1.8708	8645.95
1.87095	8610.09
1.87109	8581.11
1.87124	8543.87
1.87138	8507.84
1.87153	8473.97
1.87168	8441.91
1.87182	8416.14
1.87197	8401.41
1.87212	8377.085
1.87226	8354.85
1.87241	8338.01
1.87256	8312.86
1.872705	8290.84
1.872852	8270.08
1.873	8245.6
1.87315	8222.42
1.87329	8198.541
1.87344	8174.09
1.87359	8152.04
1.87373	8127.42
1.87388	8095.46
1.87403	8060.98
1.87417	8027.57
1.87432	7994.61
1.87447	7957.35
1.87462	7919.53
1.87476	7878.65
1.87491	7836.17
1.87506	7790.15
1.8752	7744.64
1.87535	7701.24
1.8755	7659.35
1.87565	7625.416
1.87579	7591.39
1.87594	7562.24
1.87609	7534.51
1.876235	7511.97
1.87638	7480.32
1.87653	7449.23
1.87668	7416.38
1.87682	7379.41
1.87697	7344.81
1.87712	7309.72
1.87727	7277.15
1.87741	7241.5
1.87756	7206.78
1.87771	7173.36
1.87786	7140.09
1.87801	7107.05
1.87815	7072.67
1.8783	7036.458
1.87845	6999
1.8786	6961.59
1.87874	6923.78
1.87889	6886.7
1.87904	6847.76
1.87919	6806.58
1.87934	6763.8
1.87948	6723.75
1.87963	6686.19
1.87978	6646.39
1.87993	6612.68
1.88008	6577.9
1.88022	6543.43
1.88037	6509.5
1.88052	6484.14
1.88067	6454.17
1.88082	6423.91
1.88096	6390.95
1.881112	6356.1
1.88126	6319.35
1.88141	6283.98
1.88156	6248.43
1.8817	6216.59
1.88185	6180.98
1.882	6143.93
1.88215	6112.4
1.8823	6082.51
1.88245	6054.23
1.8826	6039.85
1.88274	6006.33
1.882892	5971.22
1.88304	5935.43
1.88319	5898.481
1.88334	5862.27
1.88349	5826.28
1.88363	5787.45
1.88378	5748.22
1.88393	5706.99
1.88408	5667.86
1.88423	5633.19
1.88438	5601.24
1.88453	5568
1.88468	5535.01
1.88482	5505.66
1.88497	5480.53
1.88512	5458.39
1.88527	5436.91
1.88542	5417.188
1.88557	5393.61
1.88572	5371.75
1.88587	5348.624
1.88602	5323.63
1.88616	5296.57
1.88631	5268.51
1.88646	5238.01
1.88661	5206.27
1.88676	5173.66
1.88691	5141.35
1.88706	5111.65
1.88721	5080.66
1.88736	5051.03
1.88751	5024.28
1.88766	4998.75
1.88781	4972.73
1.887955	4949.04
1.8881	4927.19
1.88825	4907.168
1.8884	4885.186
1.88855	4858.44
1.8887	4832.23
1.88885	4806.64
1.889001	4779.96
1.88915	4751.89
1.8893	4727.13
1.88945	4700.19
1.8896	4669.82
1.88975	4642.02
1.8899	4613.91
1.89005	4588.34
1.8902	4561.85
1.89035	4538.38
1.8905	4516.55
1.89065	4496.7
1.8908	4478.019
1.89095	4460.75
1.8911	4443.48
1.89125	4425.94
1.8914	4406.311
1.89155	4386.02
1.8917	4364.84
1.89185	4344.49
1.892	4323.6
1.89215	4299.39
1.8923	4277.85
1.89245	4255.67
1.8926	4233.24
1.89275	4210.13
1.8929	4188.41
1.89305	4166.81
1.8932	4142.71
1.89335	4116.6
1.8935	4093.43
1.89365	4072.53
1.8938	4052.52
1.89395	4032.71
1.8941	4012.05
1.89425	3992.25
1.8944	3972.67
1.89455	3956.06
1.8947	3940.15
1.894851	3925.67
1.895	3909.92
1.895152	3895.76
1.8953	3878.99
1.89545	3861.94
1.8956	3844.24
1.89575	3823.26
1.895905	3800.76
1.89606	3776.18
1.89621	3751.728
1.89636	3727.73
1.89651	3706.37
1.89666	3684.89
1.89681	3662.78
1.89696	3641.49
1.89711	3619.63
1.897262	3597.16
1.89741	3577.22
1.89756	3555.68
1.89771	3539.7
1.89787	3526.65
1.89802	3515.95
1.89817	3503.66
1.89832	3491.34
1.89847	3479.35
1.898621	3465.18
1.89877	3448.92
1.89892	3432.62
1.89907	3414.48
1.89923	3393.06
1.899377	3366.52
1.89953	3345.35
1.89968	3327.03
1.89983	3306.11
1.89998	3286.24
1.90013	3268.64
1.900285	3253.36
1.90044	3237.65
1.90059	3221.67
1.90074	3205.65
1.90089	3190.9
1.90104	3176.89
1.90119	3163.43
1.90135	3151.08
1.9015	3139.37
1.90165	3125.98
1.9018	3108.92
1.90195	3091.85
1.9021	3074.73
1.90226	3056.9
1.90241	3040.76
1.90256	3023.03
1.90271	3006.2
1.90286	2987.97
1.90301	2969.48
1.90317	2949.09
1.90332	2930.54
1.90347	2912.7
1.903622	2894.83
1.90377	2878.66
1.903926	2862.395
1.904078	2847.1
1.90423	2832.92
1.90438	2820.12
1.90453	2808.28
1.90469	2796.41
1.90484	2785.12
1.90499	2771.032
1.905143	2756.13
1.9053	2741.22
1.90545	2725.21
1.9056	2709.34
1.90575	2692.824
1.9059	2678.93
1.90606	2663.93
1.90621	2650.22
1.90636	2637.69
1.90651	2623.95
1.90667	2609.47
1.90682	2596.96
1.90697	2585.13
1.907124	2573.26
1.90728	2560.15
1.90743	2547.45
1.90758	2533.06
1.90773	2519.82
1.90789	2504.84
1.90804	2488.02
1.90819	2473.48
1.90835	2456.61
1.9085	2440.02
1.908651	2422.968
1.9088	2406.83
1.90896	2394.52
1.90911	2383.22
1.90926	2371.333
1.90942	2360.887
1.90957	2350.09
1.90972	2338.15
1.90987	2327.259
1.91003	2316.47
1.91018	2305.386
1.91033	2294.84
1.91049	2284.32
1.91064	2271.61
1.91079	2261.59
1.910946	2248.36
1.9111	2233.33
1.91125	2218.9
1.91141	2205.37
1.911559	2193.73
1.91171	2183.83
1.91187	2174.79
1.912019	2168
1.91217	2161.14
1.91233	2154.53
1.91248	2146.26
1.91263	2135.47
1.91279	2123.47
1.91294	2109.24
1.91309	2098.17
1.913247	2087.051
1.9134	2075.47
1.91355	2063.5
1.91371	2051.12
1.91386	2037.47
1.91402	2022.12
1.91417	2007.13
1.91432	1994.93
1.91448	1983.32
1.91463	1971.1
1.91478	1960.317
1.91494	1951.27
1.915092	1944.17
1.91525	1942.24
1.9154	1934.75
1.91555	1926.74
1.91571	1915.57