File: bartels lab/3642 MoS2 on 1012 WG/Raman_5_21_2015_Dominic/C3_R2/3642 8401x 3303y Raman 1800 T2 D1 100x.txt
650.268	69.52726
649.786	73.67617
649.306	73.8482
648.823	74.0234
648.343	73.9546
647.863	73.8909
647.38	73.7266
646.9	73.2355
646.417	73.395
645.937	73.5876
645.4541	73.8901
644.974	74.3583
644.491	74.7434
644.01	74.9413
643.528	75.1731
643.047	75.3727
642.564	75.394
642.084	75.4962
641.601	75.5417
641.12	75.6172
640.637	75.6549
640.156	75.7216
639.674	75.7899
639.193	75.8626
638.71	75.9662
638.227	76.0523
637.746	76.1815
637.263	76.2839
636.782	76.4346
636.299	76.5541
635.818	76.753
635.335	76.9053
634.852	77.0324
634.371	77.2157
633.887	77.2664
633.406	77.5321
632.9231	77.7833
632.44	78.05262
631.959	78.331
631.475	78.59539
630.992	78.9354
630.511	79.2996
630.027	79.5149
629.544	79.6821
629.0625	79.8424
628.579	79.9511
628.096	80.0448
627.614	79.6436
627.131	79.5197
626.647	79.3114
626.163	79.1118
625.682	78.9157
625.198	78.6805
624.7146	78.4683
624.233	78.20121
623.749	77.98526
623.2655	77.7237
622.782	77.6887
622.3	77.60714
621.816	77.3831
621.332	77.089
620.849	76.7986
620.367	76.5235
619.883	76.2183
619.3988	76.0835
618.915	76.6544
618.431	77.1648
617.949	77.927
617.465	78.7951
616.981	79.8491
616.4967	80.91964
616.013	82.011
615.528	83.1395
615.046	84.1388
614.562	84.8192
614.078	84.98423
613.594	84.4409
613.109	83.0245
612.625	80.4486
612.141	77.957
611.656	76.1415
611.174	74.6196
610.69	73.4555
610.205	72.6345
609.721	72.1754
609.236	73.1102
608.752	73.9899
608.267	74.5895
607.783	74.5977
607.298	74.5378
606.814	74.3573
606.329	73.7872
605.844	73.7763
605.36	73.9426
604.875	74.1639
604.39	74.3864
603.9054	74.67218
603.421	74.9373
602.936	75.2064
602.451	75.4729
601.966	75.6496
601.4812	75.9068
600.996	76.1659
600.511	76.5165
600.026	76.9158
599.541	77.2629
599.0564	77.6344
598.571	77.9566
598.0863	78.2764
597.6012	78.5651
597.116	78.8339
596.631	79.0579
596.146	79.1923
595.661	79.2489
595.175	79.2528
594.69	78.7831
594.205	78.21785
593.717	77.6596
593.232	77.0564
592.747	76.5052
592.261	75.9632
591.776	75.4615
591.291	75.2969
590.805	75.2112
590.32	75.2296
589.832	75.5201
589.347	75.9374
588.861	76.3732
588.375	76.8192
587.89	77.2893
587.404	77.7068
586.9165	78.0744
586.431	78.4194
585.945	78.1178
585.459	77.8148
584.974	77.3464
584.486	76.7521
584	76.1667
583.5141	75.4764
583.0282	75.0111
582.54	75.084
582.054	74.8699
581.568	74.1584
581.082	72.99
580.594	71.9206
580.1084	70.8805
579.622	70.5526
579.136	70.8879
578.648	71.402
578.162	72.1024
577.676	72.4779
577.188	73.1988
576.701	73.8807
576.215	74.5468
575.727	75.1795
575.2406	75.7605
574.754	76.3379
574.266	76.6841
573.7796	76.8356
573.293	76.7098
572.805	76.584
572.3183	76.3219
571.832	76.054
571.343	75.6366
570.857	75.284
570.368	74.9873
569.882	74.6643
569.395	74.5797
568.906	74.461
568.42	74.418
567.931	74.356
567.444	74.41925
566.958	74.4708
566.469	74.6052
565.982	74.8748
565.493	75.1348
565.006	75.4441
564.517	75.8844
564.031	76.0286
563.542	76.1552
563.055	76.2473
562.568	75.6022
562.079	75.3445
561.592	75.2002
561.103	75.4357
560.6156	75.5546
560.126	75.6961
559.639	75.9277
559.15	76.1731
558.661	76.3891
558.174	76.5361
557.685	76.5245
557.197	75.8564
556.708	74.9558
556.221	74.0522
555.731	74.105
555.244	74.5091
554.755	75.04528
554.265	75.5989
553.778	76.1628
553.288	76.71418
552.801	77.283
552.311	77.5737
551.822	77.9452
551.334	78.1283
550.844	78.0914
550.357	78.1168
549.867	78.03878
549.377	78.0159
548.89	77.87
548.4	77.9375
547.91	78.1274
547.422	78.4712
546.933	79.3665
546.443	80.3853
545.955	81.3694
545.465	82.388
544.975	83.1324
544.487	84.0667
543.997	85.0661
543.507	85.9782
543.019	86.78
542.529	87.3862
542.039	87.88726
541.549	87.629
541.061	87.2193
540.5705	86.7414
540.08	86.3246
539.59	85.9664
539.102	86.1186
538.612	86.3357
538.121	86.5643
537.631	86.9602
537.141	87.4783
536.652	88.1052
536.1618	88.9521
535.671	89.9849
535.181	91.1672
534.69	92.5374
534.202	94.1199
533.711	95.913
533.221	97.8768
532.73	100.124
532.24	102.541
531.751	105.141
531.26	108.024
530.77	110.97
530.279	114.295
529.788	118.24
529.297	123.852
528.807	130.129
528.316	137.667
527.8269	146.522
527.336	157.0018
526.845	169.091
526.354	182.343
525.863	198.944
525.372	220.9455
524.881	253.287
524.3902	291.675
523.899	367.2038
523.408	434.393
522.917	581
522.426	808
521.935	1043
521.443	1426
520.952	1801
520.461	1942
519.9696	1913.74
519.478	1496.04
518.987	1123.91
518.496	825.207
518.004	616.646
517.513	474.3143
517.021	377.729
516.53	291.607
516.038	276.1543
515.547	227.968
515.055	190.114
514.564	179.272
514.0722	167.225
513.581	154.825
513.089	144.599
512.597	138.422
512.106	132.65
511.6138	127.291
511.122	122.146
510.63	116.093
510.138	111.671
509.645	107.795
509.153	104.888
508.661	104.462
508.169	102.686
507.677	101.049
507.185	99.3856
506.693	98.4005
506.201	97.5237
505.707	96.8389
505.215	95.598
504.723	94.15377
504.231	92.5744
503.738	90.9173
503.246	89.0298
502.752	87.2166
502.2598	85.4095
501.768	83.8351
501.275	82.3812
500.783	81.0642
500.289	80.0689
499.796	79.21463
499.3038	78.7863
498.811	78.6533
498.317	78.8878
497.824	79.5681
497.332	80.5717
496.839	80.9014
496.345	80.6493
495.852	80.4506
495.36	80.1874
494.867	79.8627
494.372	79.525
493.88	79.29406
493.3869	78.9748
492.892	78.7208
492.399	78.4163
491.907	78.1109
491.412	77.8284
490.919	77.2056
490.426	76.6192
489.931	75.95372
489.438	75.362
488.945	74.7354
488.45	74.1799
487.957	73.7085
487.464	73.1892
486.969	73.1569
486.476	73.5254
485.983	73.8459
485.488	74.1784
484.994	74.5484
484.499	74.9037
484.006	75.1747
483.513	75.4823
483.017	75.5668
482.524	75.5107
482.029	75.4222
481.535	75.2673
481.04	75.113
480.547	74.9366
480.053	74.7681
479.558	74.568
479.064	74.3796
478.569	74.1689
478.075	73.935
477.58	73.6983
477.086	73.3545
476.59	73.0636
476.097	72.9912
475.601	73.19091
475.107	73.7481
474.611	74.402
474.118	75.1592
473.622	75.8266
473.128	76.41906
472.6322	76.8452
472.138	76.7538
471.6424	76.5244
471.146	75.8789
470.653	74.6031
470.156	71.69017
469.663	71.3279
469.166	73.3564
468.672	79.0652
468.1763	84.11998
467.68	83.9162
467.186	74.8964
466.69	72.6682
466.196	72.4619
465.6994	74.0618
465.203	75.1011
464.709	77.46386
464.213	80.7071
463.716	80.9476
463.222	80.24057
462.7254	77.76049
462.231	75.94632
461.735	78.2434
461.238	78.4526
460.744	78.6574
460.247	78.6702
459.75	78.2915
459.254	77.8544
458.759	77.4614
458.263	77.1681
457.766	76.8876
457.2713	76.9256
456.775	77.2961
456.2778	77.7119
455.783	78.1866
455.286	78.6529
454.7894	79.1279
454.293	79.5451
453.7977	79.8946
453.301	80.2343
452.8038	80.3254
452.307	80.3968
451.81	80.45723
451.315	80.4167
450.818	80.1671
450.321	79.8634
449.824	79.507
449.329	79.1016
448.831	78.7445
448.334	78.0928
447.837	77.9163
447.34	77.7624
446.842	77.7404
446.347	77.7625
445.85	77.8362
445.352	77.8856
444.8551	77.9346
444.3577	77.9897
443.86	78.0248
443.363	78.083
442.867	78.1127
442.37	78.1727
441.872	78.169
441.375	78.1662
440.877	78.2019
440.379	78.175
439.882	78.12957
439.384	78.1249
438.886	78.1398
438.389	78.1334
437.891	78.187
437.395	78.2418
436.897	78.2929
436.3996	78.3433
435.902	78.4032
435.404	78.4451
434.906	78.4936
434.408	78.5219
433.91	78.5345
433.412	78.5453
432.914	78.5366
432.416	78.5261
431.918	78.5006
431.42	78.4633
430.922	78.4311
430.4234	78.38784
429.9252	78.2786
429.427	78.2863
428.929	78.0745
428.43	77.8398
427.932	77.5711
427.434	77.0403
426.935	76.5993
426.435	76.1857
425.937	75.7434
425.4382	75.4261
424.94	75.1926
424.441	74.966
423.943	74.8018
423.444	75.2145
422.946	75.5633
422.447	75.6434
421.948	75.767
421.45	75.8752
420.949	75.9891
420.45	76.1156
419.952	76.1826
419.453	76.0887
418.954	76.07
418.4552	76.1913
417.956	76.3159
417.455	76.5485
416.957	77.0239
416.458	77.4126
415.959	77.776
415.46	78.2033
414.961	78.6694
414.46	79.0611
413.961	79.17
413.461	77.6404
412.962	77.0818
412.461	77.0379
411.962	77.3175
411.463	77.9171
410.964	78.8416
410.464	79.9036
409.963	81.0192
409.464	82.4646
408.964	84.0493
408.465	86.0243
407.964	88.4461
407.464	91.8713
406.965	96.6495
406.463	101.909
405.964	107.497
405.464	112.1114
404.9646	116.213
404.463	119.46
403.963	116.945
403.464	112.761
402.962	107.433
402.462	101.937
401.963	96.6606
401.461	91.7622
400.961	87.5566
400.461	83.7884
399.959	84.8131
399.46	83.1406
398.958	81.5012
398.4577	80.3909
397.958	79.5282
397.456	79.1263
396.956	78.835
396.454	78.5677
395.954	78.3735
395.454	78.0937
394.951	77.7524
394.451	77.3637
393.9491	76.9276
393.449	76.5417
392.949	76.1646
392.446	75.8421
391.946	75.5426
391.444	75.23642
390.944	75.0297
390.441	74.6022
389.941	74.2392
389.438	74.1809
388.938	74.4574
388.435	75.5488
387.935	76.7051
387.432	78.06382
386.932	79.6188
386.429	81.1753
385.929	82.71489
385.4259	84.3763
384.925	85.8967
384.423	87.1674
383.922	88.0743
383.419	88.69075
382.918	88.3502
382.4155	87.3949
381.915	86.3879
381.4118	85.253
380.909	84.053
380.408	82.8651
379.905	81.6287
379.404	80.5335
378.901	79.5977
378.398	78.6583
377.897	77.7236
377.394	77.0964
376.893	76.5663
376.39	76.1335
375.886	75.7185
375.385	75.3869
374.882	75.0924
374.379	74.8234
373.877	74.6052
373.374	74.3955
372.871	74.2438
372.369	74.0631
371.866	73.9379
371.363	73.7806
370.861	73.5397
370.3577	73.36602
369.854	73.2258
369.353	73.0947
368.849	72.9477
368.345	72.89032
367.844	72.8387
367.34	72.8085
366.837	72.7859
366.333	72.7508
365.831	72.7178
365.327	72.683
364.824	72.586
364.32	70.6208
363.818	70.1692
363.314	69.8466
362.81	69.5678
362.306	69.3259
361.804	69.2853
361.3	69.41806
360.796	69.7583
360.292	70.1396
359.788	70.5576
359.286	70.9695
358.782	71.4135
358.278	71.8233
357.774	72.2279
357.269	72.6204
356.765	72.9151
356.263	73.0846
355.759	73.3128
355.254	73.4858
354.75	73.6146
354.246	73.7474
353.741	73.8285
353.237	73.88195
352.734	73.9321
352.23	73.8431
351.7254	73.715
351.221	73.5737
350.716	73.41301
350.2117	73.2291
349.707	73.0496
349.202	72.8568
348.698	72.65757
348.193	72.4722
347.688	72.3726
347.186	72.1993
346.681	72.1303
346.176	72.4112
345.671	72.8564
345.166	73.2094
344.661	73.5869
344.1564	73.9885
343.651	74.3269
343.146	74.4905
342.641	74.6505
342.136	74.6966
341.631	74.3959
341.126	74.0883
340.621	73.6326
340.116	73.1472
339.611	72.6013
339.106	72.0574
338.6	71.4172
338.095	70.79068
337.59	70.1743
337.084	69.7213
336.577	69.2718
336.072	68.836
335.566	68.4673
335.061	68.1745
334.555	67.9045
334.05	67.9206
333.544	68.0995
333.039	68.5714
332.5332	69.1205
332.028	69.7994
331.522	70.4685
331.014	71.1023
330.509	71.765
330.003	72.4053
329.497	72.9601
328.991	73.3363
328.486	73.4771
327.98	73.5228
327.474	73.5606
326.966	73.4842
326.46	73.3565
325.9541	73.2336
325.448	73.0299
324.942	72.8366
324.434	72.6479
323.928	72.4912
323.422	72.3173
322.916	72.3672
322.41	72.5178
321.902	72.3809
321.395	72.2614
320.889	72.1373
320.383	72.0275
319.877	71.81649
319.368	71.7994
318.862	71.789
318.356	71.8374
317.849	71.8892
317.341	71.997
316.834	72.11219
316.328	72.263
315.819	72.5473
315.313	72.8721
314.806	73.0169
314.3	73.2216
313.791	73.4446
313.284	73.4923
312.778	73.5277
312.269	73.5978
311.762	73.5462
311.255	73.5466
310.747	73.6296
310.24	73.7711
309.733	73.99353
309.224	74.341
308.717	74.7733
308.2103	75.6013
307.701	76.6181
307.194	77.607
306.685	78.7389
306.178	79.812
305.6712	80.8116
305.162	81.7026
304.655	82.5014
304.146	82.8116
303.639	83.11084
303.131	83.2947
302.6221	83.0225
302.115	82.6673
301.6055	82.2626
301.098	81.83252
300.589	81.3553
300.081	80.8589
299.5741	80.34362
299.065	79.8073
298.557	79.3341
298.048	78.8728
297.54	78.4214
297.031	78.0096
296.523	77.6323
296.013	77.2673
295.506	76.9299
294.996	76.5781
294.488	76.3802
293.979	75.995
293.471	75.5882
292.961	75.2037
292.453	74.8107
291.943	74.44268
291.436	74.0665
290.926	73.716
290.416	73.3646
289.908	73.0356
289.398	72.71064
288.89	72.401
288.38	72.1099
287.872	71.8317
287.362	71.5745
286.851	71.3592
286.343	71.1657
285.833	70.9958
285.325	70.868
284.815	70.9996
284.304	70.9625
283.796	70.9411
283.286	70.8539
282.777	70.9656
282.267	71.1144
281.7565	71.2686
281.248	71.4339
280.738	71.6369
280.227	71.8
279.719	72.0496
279.208	72.249
278.697	72.4157
278.189	72.4104
277.678	72.3844
277.168	71.9896
276.657	71.4988
276.148	71.101
275.637	70.7052
275.127	70.2847
274.618	69.9073
274.1069	69.5033
273.596	69.1415
273.085	68.7746
272.576	68.5058
272.065	68.4529
271.554	68.2816
271.043	68.191
270.534	68.1245
270.023	68.0419
269.512	68.0352
269.001	68.0328
268.492	68.0794
267.981	67.9299
267.469	67.7786
266.958	67.584
266.447	67.257
265.938	66.95015
265.426	66.78643
264.915	66.6628
264.403	66.62429
263.892	66.6627
263.381	66.7648
262.871	67.0376
262.36	67.2223
261.848	67.3825
261.337	67.5524
260.825	67.6814
260.313	67.8322
259.802	67.9356
259.292	68.05542
258.78	68.1345
258.269	68.2118
257.757	68.2369
257.245	68.2603
256.733	68.149
256.221	68.0628
255.709	67.9891
255.198	68.1257
254.686	67.8066
254.174	67.4242
253.662	67.0558
253.1517	66.6386
252.64	66.1962
252.128	65.7723
251.615	65.3543
251.103	64.8661
250.591	64.5124
250.079	64.2319
249.567	63.9714
249.054	64.221
248.542	64.2459
248.03	64.3044
247.518	64.4282
247.0052	64.5332
246.493	64.8471
245.98	65.1525
245.468	65.5075
244.955	65.8577
244.443	66.2177
243.93	66.5836
243.418	66.9139
242.905	67.2545
242.391	67.5269
241.8779	67.5777
241.365	67.6624
240.853	67.7757
240.34	67.7341
239.827	67.7252
239.314	67.5185
238.801	67.0656
238.289	66.6128
237.7757	66.1238
237.2628	65.6124
236.748	65.0924
236.2348	64.7791
235.722	64.5693
235.2088	65.0502
234.696	65.1647
234.183	65.3072
233.67	65.495
233.154	65.7221
232.641	65.9954
232.128	66.3098
231.615	66.6756
231.102	67.1168
230.588	67.6016
230.073	67.8924
229.56	67.9256
229.046	67.5595
228.533	67.2075
228.019	66.9799
227.504	66.8377
226.99	66.80265
226.477	66.7404
225.963	66.5277
225.45	66.1517
224.9341	65.7988
224.42	65.4755
223.907	65.3476
223.393	65.3198
222.877	65.14
222.364	65.0557
221.85	65.078
221.334	65.1629
220.82	65.221
220.306	65.2994
219.792	65.1791
219.276	64.7889
218.763	64.2406
218.2486	63.72261
217.7325	63.2399
217.218	62.7989
216.704	62.4729
216.188	62.1927
215.674	61.9911
215.16	61.9094
214.6438	62.0094
214.13	62.1783
213.6154	62.357
213.099	62.3884
212.585	62.4319
212.07	62.508
211.554	62.4885
211.0397	62.32653
210.523	61.7786
210.0088	61.1943
209.494	60.5893
208.978	60.1178
208.463	59.6829
207.947	59.3005
207.4321	59.1104
206.918	59.0064
206.4008	58.8856
205.886	58.7413
205.369	58.68232
204.855	58.7655
204.338	58.9621
203.8231	59.3333
203.306	59.7148
202.791	60.0742
202.277	60.2827
201.7596	60.2771
201.245	60.2077
200.728	60.0692
200.213	59.87598
199.696	59.643
199.1806	59.505
198.663	59.3436
198.148	59.0756
197.631	58.7975
197.114	58.7737
196.5988	58.85
196.0815	59.0113
195.5663	59.2693
195.049	59.5906
194.534	60.0401
194.016	60.57169
193.501	61.0171
192.983	60.921
192.468	60.72913
191.951	60.5869
191.433	60.5471
190.918	60.6066
190.4	60.723
189.884	60.9213
189.367	61.36272
188.849	61.8834
188.333	62.198
187.816	62.4835
187.3	62.60268
186.782	62.4266
186.264	62.0408
185.749	61.6277
185.231	61.352
184.7128	61.0181
184.197	60.5958
183.679	60.0635
183.161	59.50679
182.645	58.8636
182.127	58.2773
181.609	57.8302
181.093	57.5842
180.575	57.4791
180.057	57.4623
179.54	57.9424
179.022	58.4566
178.504	58.92572
177.986	59.3198
177.469	59.636
176.951	59.5821
176.433	59.4284
175.914	59.17403
175.3979	59.0743
174.879	58.8824
174.361	58.3669
173.842	58.2267
173.326	58.4976
172.807	58.9224
172.289	58.7896
171.77	58.4563
171.254	58.0612
170.735	57.703
170.216	57.4823
169.697	57.3156
169.179	57.2558
168.662	57.1102
168.143	57.1052
167.624	57.2275
167.105	57.5098
166.586	57.9052
166.067	58.3963
165.55	58.9153
165.031	59.46965
164.512	59.9549
163.9933	60.437
163.4742	61.0115
162.955	61.74894
162.4359	62.0471
161.9167	62.044
161.3996	62.0581
160.88	61.8935
160.361	61.5774
159.842	61.0825
159.3224	60.4236
158.803	59.6801
158.284	58.74511
157.764	58.5742
157.245	58.4901
156.725	58.5093
156.206	58.6143
155.686	58.8295
155.169	59.1102
154.649	59.523
154.13	60.2953
153.61	61.3857
153.09	61.57412
152.57	61.4119
152.051	61.038
151.531	59.6054
151.011	58.7259
150.491	58.0999
149.971	57.6591
149.452	57.368
148.932	57.1541
148.412	57.0676
147.892	56.9082
147.372	57.6077
146.8517	57.7228
146.332	57.8381
145.812	57.9578
145.289	58.02
144.769	57.9813
144.249	58.03624
143.729	58.0817
143.209	57.711
142.688	57.2641
142.168	57.1353
141.648	57.16692
141.127	57.6723
140.607	57.8404
140.086	58.1621
139.566	58.5305
139.046	58.9487
138.523	59.3647
138.002	59.82663