File: bartels lab/3642 MoS2 on 1012 WG/Raman_5_21_2015_Dominic/C3_R2/3642 8432x 3254y Pl 600 T2 D1 100x.txt
1.7708	1580.235
1.77093	1590.15
1.77106	1595.6
1.77119	1600.43
1.77132	1603.8
1.771448	1607.18
1.77158	1609.75
1.77171	1610.57
1.771839	1609.59
1.77197	1610.2
1.7721	1611.22
1.77223	1613.23
1.77236	1615.28
1.77249	1614.74
1.77262	1614.93
1.77275	1614.11
1.77288	1613.71
1.77301	1613.52
1.77314	1613.293
1.77327	1614.82
1.77341	1615.84
1.77354	1617.26
1.77367	1619.87
1.773797	1622.26
1.77393	1624.16
1.77406	1626
1.77419	1629.09
1.77432	1632.642
1.77445	1635.52
1.77458	1639.62
1.77471	1641.75
1.77484	1646.05
1.77497	1648.46
1.775105	1650.34
1.77524	1652.62
1.77537	1653.68
1.7755	1655.53
1.77563	1657.23
1.77576	1659.66
1.77589	1663.7
1.77602	1669.39
1.77615	1675.02
1.77628	1679.744
1.776415	1684.42
1.77655	1688.54
1.77668	1692.31
1.77681	1693.64
1.77694	1692.986
1.77707	1691.84
1.777202	1690.43
1.77733	1689.15
1.77746	1687.01
1.777596	1686.38
1.77773	1684.91
1.77786	1684.62
1.77799	1684.78
1.77812	1686.24
1.77825	1689.99
1.77838	1692.19
1.77852	1696.33
1.77865	1698.99
1.77878	1701.969
1.77891	1705
1.77904	1708.05
1.77917	1709.06
1.7793	1709.47
1.77944	1711.38
1.77957	1712.88
1.7797	1714.854
1.77983	1714.38
1.77996	1712.66
1.78009	1711.81
1.780226	1708.13
1.78036	1709.32
1.78049	1713.48
1.78062	1720.01
1.780753	1728.14
1.78088	1729.218
1.78102	1727.35
1.78115	1723.6
1.78128	1719.64
1.78141	1713.79
1.78154	1710.32
1.78168	1714.18
1.78181	1716.67
1.78194	1716.98
1.78207	1717.11
1.782204	1717.17
1.78234	1717.72
1.78247	1716.44
1.7826	1717.78
1.78273	1720.58
1.78286	1723.52
1.783	1726.68
1.78313	1729.94
1.78326	1734.29
1.78339	1737.288
1.78353	1739.88
1.78366	1742.07
1.78379	1743.54
1.78392	1745.7
1.78405	1748.55
1.784187	1750.494
1.78432	1754.24
1.78445	1756.51
1.784584	1756.66
1.78472	1756.92
1.784849	1756.95
1.78498	1758.7
1.78511	1760.82
1.78525	1762.75
1.78538	1765.33
1.78551	1768.91
1.78564	1773.17
1.78578	1777.16
1.78591	1781.14
1.78604	1783.82
1.78617	1787.23
1.78631	1789.46
1.78644	1791.85
1.78657	1795.24
1.78671	1799.87
1.78684	1805.73
1.786971	1808.67
1.7871	1809.77
1.78724	1808.454
1.78737	1805.98
1.7875	1803.56
1.78764	1799.69
1.78777	1797.57
1.7879	1797.23
1.78803	1798.22
1.78817	1801.33
1.7883	1804.94
1.788433	1807.2
1.788566	1808.76
1.788699	1812.32
1.78883	1818.08
1.78897	1821.72
1.7891	1824.1
1.78923	1825.99
1.78936	1826.43
1.789498	1826.08
1.78963	1827.902
1.78976	1829.65
1.7899	1830.37
1.790031	1831.08
1.79016	1832.18
1.7903	1834.72
1.79043	1838.03
1.79056	1844.19
1.7907	1850.62
1.79083	1857.322
1.79096	1861.25
1.7911	1865.21
1.79123	1868.52
1.79136	1870.65
1.7915	1874.14
1.79163	1878.12
1.79177	1881.33
1.791899	1885.2
1.79203	1889.23
1.79217	1893.787
1.7923	1897.57
1.79243	1901.49
1.79257	1905.81
1.792701	1911.338
1.79283	1916.99
1.79297	1922.78
1.793102	1928.28
1.79324	1933.44
1.79337	1937.33
1.7935	1940.54
1.79364	1941.2
1.79377	1942.29
1.79391	1941.56
1.79404	1941.25
1.794173	1942.1
1.794307	1943.12
1.794441	1942.79
1.79458	1943.19
1.794709	1943.13
1.794843	1945.18
1.79498	1946.47
1.79511	1949.67
1.79525	1956.06
1.79538	1961.36
1.79551	1965.54
1.79565	1969.45
1.79578	1973.51
1.79592	1980.722
1.79605	1985.67
1.79618	1988.21
1.796319	1991.27
1.79645	1995.13
1.79659	1999.33
1.79672	2002.903
1.79686	2008.25
1.79699	2011.47
1.79713	2015.65
1.79726	2021
1.797394	2028.53
1.79753	2035.56
1.79766	2040.11
1.7978	2045.776
1.79793	2050.98
1.79807	2054.292
1.7982	2057.61
1.79834	2062.7
1.79847	2065.41
1.79861	2066.88
1.79874	2066.69
1.79887	2064.5
1.79901	2063.22
1.79914	2063.79
1.79928	2066.66
1.79941	2069.83
1.79955	2084.33
1.79968	2086.96
1.799818	2088.88
1.79995	2086.95
1.80009	2087.94
1.80022	2081.83
1.80036	2066.53
1.80049	2082.25
1.80063	2150.95
1.80076	2133.43
1.8009	2124.77
1.80103	2119.17
1.80117	2122.7
1.8013	2122.16
1.80144	2121.18
1.80157	2117.36
1.80171	2117.167
1.80184	2114.76
1.80198	2117.04
1.80211	2117.4
1.802249	2121.886
1.80238	2127.16
1.80252	2138.11
1.80265	2142.03
1.80279	2143.69
1.80293	2142.57
1.80306	2141.35
1.8032	2140.89
1.80333	2138.57
1.80347	2137.71
1.8036	2136.89
1.803738	2138.373
1.80387	2140.03
1.80401	2142.3
1.80414	2143.56
1.80428	2146.884
1.80442	2150.34
1.80455	2155.76
1.804687	2159.94
1.80482	2163.02
1.80496	2167.69
1.805094	2172.156
1.80523	2174.91
1.80537	2175.92
1.8055	2177.26
1.80564	2177.72
1.80577	2179.12
1.80591	2181.3
1.80604	2180.37
1.80618	2181.79
1.80632	2184.04
1.80645	2187.61
1.80659	2190.77
1.80672	2194.43
1.80686	2199.07
1.807	2205.58
1.80713	2211.34
1.80727	2215.615
1.8074	2217.11
1.80754	2216.54
1.80768	2214.9
1.80781	2213.13
1.80795	2212.25
1.808085	2208.34
1.80822	2200.1
1.80836	2195.83
1.80849	2190.77
1.80863	2188.13
1.80877	2184.78
1.8089	2184.3
1.80904	2183.06
1.80918	2184.385
1.80931	2185.92
1.809448	2191.31
1.80958	2199.03
1.80972	2205.71
1.80986	2214.16
1.80999	2220.52
1.81013	2227
1.81027	2232.17
1.8104	2237.76
1.81054	2242.51
1.81068	2246.06
1.81081	2248.57
1.81095	2251.39
1.81109	2256.65
1.81122	2264.62
1.81136	2270.64
1.8115	2276.62
1.81163	2281.05
1.81177	2285.56
1.81191	2290.26
1.81204	2293.98
1.81218	2288.22
1.81232	2289.02
1.81245	2290.116
1.81259	2291.56
1.81273	2293.72
1.81287	2295.48
1.813	2299.24
1.81314	2303.59
1.81328	2308.81
1.81341	2314.73
1.81355	2318.79
1.81369	2323.06
1.81382	2327.41
1.81396	2333.17
1.8141	2339.24
1.814236	2346.84
1.81437	2353.91
1.81451	2359.73
1.81465	2365.7
1.814785	2371.04
1.81492	2375.87
1.81506	2381.54
1.815197	2387.57
1.81533	2394.491
1.81547	2401.01
1.815609	2405.89
1.81575	2410.86
1.81588	2414.94
1.81602	2418.47
1.81616	2423.06
1.8163	2427.22
1.816434	2432.93
1.81657	2438.81
1.81671	2444.47
1.81685	2450
1.81698	2456.53
1.81712	2461.31
1.81726	2467.22
1.8174	2473.86
1.81753	2479.88
1.81767	2488.467
1.81781	2497.042
1.81795	2503.84
1.818086	2507.67
1.818224	2512.03
1.81836	2514.61
1.8185	2519.84
1.81864	2524.88
1.81878	2530.36
1.81891	2533.53
1.81905	2537.24
1.81919	2541.75
1.81933	2547.44
1.81947	2552.271
1.8196	2559.71
1.81974	2567.97
1.81988	2574.52
1.82002	2582.18
1.82016	2589.32
1.82029	2596.64
1.82043	2604.42
1.82057	2612.48
1.82071	2618.51
1.82085	2625.59
1.82099	2628.89
1.82112	2630.603
1.82126	2631.44
1.8214	2632.91
1.82154	2635.57
1.82168	2637.46
1.82182	2638.854
1.82195	2641.95
1.82209	2644.605
1.82223	2647.3
1.822369	2650.87
1.82251	2655.08
1.82265	2662.3
1.82278	2666.67
1.82292	2667.28
1.82306	2669.65
1.8232	2673.13
1.82334	2676.35
1.82348	2680.56
1.82362	2681.18
1.82376	2682.66
1.823894	2688.45
1.82403	2694.238
1.82417	2699.79
1.82431	2705.15
1.82445	2707.38
1.82459	2709.55
1.82473	2710.6
1.82487	2708.78
1.825	2708.12
1.82514	2705.75
1.82528	2704.31
1.82542	2703.29
1.82556	2704.91
1.8257	2706.44
1.82584	2709
1.825978	2710.45
1.826117	2711.99
1.82626	2713.45
1.8264	2712.81
1.82653	2714.792
1.82667	2715.13
1.82681	2716.13
1.82695	2716.01
1.82709	2717.28
1.82723	2717.69
1.82737	2720.32
1.82751	2723.78
1.82765	2727.59
1.82779	2732.6
1.82793	2738.11
1.82807	2746.33
1.82821	2753.6
1.82835	2760.6
1.82849	2766.85
1.828625	2772.05
1.82876	2774.56
1.8289	2778.26
1.82904	2780.53
1.82918	2779.66
1.82932	2777.74
1.82946	2773.12
1.8296	2770.94
1.82974	2767.95
1.82988	2766.85
1.83002	2765.63
1.830161	2767.41
1.8303	2769.88
1.83044	2772.98
1.83058	2776.53
1.83072	2778.64
1.83086	2782.25
1.831	2784.68
1.83114	2787.33
1.83128	2790.15
1.83142	2794.67
1.83156	2798.47
1.8317	2801.64
1.83184	2804.54
1.83198	2809.7
1.83212	2815.03
1.83226	2819.72
1.8324	2826.93
1.83254	2833.78
1.83268	2841.38
1.83282	2846.37
1.83296	2855.91
1.8331	2863.78
1.83324	2869.09
1.83338	2874.67
1.83352	2880.34
1.83366	2885.87
1.8338	2890.7
1.83394	2894.83
1.83408	2901.83
1.83422	2908.28
1.83436	2913.082
1.83451	2919.23
1.83465	2926.09
1.83479	2933.46
1.83493	2939.87
1.83507	2947.11
1.83521	2957.42
1.83535	2961.22
1.83549	2965.04
1.83563	2965.99
1.83577	2967.4
1.83591	2965.57
1.83605	2960.11
1.83619	2958.59
1.83633	2957.7
1.83647	2959.21
1.83662	2958.6
1.836756	2960.7
1.8369	2962.27
1.83704	2970.12
1.83718	2981.165
1.83732	2990.509
1.83746	3008.77
1.8376	2991.44
1.83774	2981.29
1.83788	2964.22
1.83802	2993.407
1.83817	3032.57
1.83831	3053.157
1.838448	3046.32
1.83859	3048.48
1.83873	3048.88
1.83887	3054.81
1.83901	3057.02
1.83915	3063.15
1.8393	3067.8
1.83944	3075.24
1.83958	3079.87
1.83972	3085.43
1.83986	3086.11
1.84	3087.72
1.84014	3089.56
1.84028	3090.87
1.84043	3093.3
1.84057	3098.97
1.84071	3106.17
1.84085	3112.53
1.84099	3119.91
1.84113	3124.91
1.84128	3127.86
1.841417	3131.35
1.84156	3134.21
1.8417	3134.301
1.84184	3135.49
1.84198	3137.1
1.84213	3140.07
1.842267	3141.74
1.84241	3143.82
1.84255	3145.84
1.84269	3146.05
1.84283	3145.572
1.84298	3147.44
1.84312	3153.126
1.84326	3157.97
1.8434	3160.23
1.84354	3160.24
1.84369	3157.64
1.84383	3153.27
1.84397	3146.79
1.844112	3139.012
1.844254	3134.64
1.8444	3130.7
1.84454	3125.75
1.84468	3121.95
1.84482	3120.61
1.84496	3121.19
1.84511	3120.32
1.84525	3121.002
1.84539	3125.42
1.84553	3127.55
1.84568	3130.17
1.84582	3133.999
1.84596	3138.66
1.8461	3142.12
1.84625	3146.16
1.846388	3146.52
1.84653	3146.09
1.84667	3141.61
1.84682	3136.94
1.84696	3131.824
1.8471	3127.57
1.84724	3123.77
1.84739	3119.991
1.84753	3117.28
1.84767	3113.99
1.84781	3111.32
1.84796	3108.67
1.8481	3106.8
1.84824	3108.34
1.84838	3110.38
1.84853	3113.23
1.84867	3114.96
1.84881	3116.043
1.84896	3119.38
1.8491	3121.29
1.84924	3121.15
1.84938	3121.08
1.84953	3122.36
1.84967	3122.12
1.84981	3121.29
1.84996	3120.87
1.8501	3120.06
1.85024	3118.61
1.85039	3114.61
1.85053	3109.88
1.85067	3106.16
1.85081	3100.76
1.85096	3094.18
1.8511	3088.824
1.85124	3080.66
1.85139	3073.62
1.85153	3067.66
1.85167	3063.8
1.85182	3063
1.851961	3061.729
1.8521	3064.11
1.85225	3068.51
1.852391	3073.88
1.85253	3076.37
1.85268	3077.8
1.85282	3077.53
1.852965	3076.61
1.85311	3074.47
1.85325	3069.38
1.8534	3056.26
1.85354	3050.7
1.85368	3046.08
1.85383	3041.04
1.85397	3038.08
1.85411	3034.03
1.85426	3029.41
1.8544	3025.66
1.85455	3023.1
1.854689	3023.03
1.85483	3024.03
1.85498	3027.106
1.85512	3029.61
1.85526	3030.13
1.85541	3031.67
1.85555	3033.594
1.8557	3036.96
1.85584	3039.04
1.85598	3039.49
1.85613	3036.12
1.85627	3034.75
1.85642	3034.22
1.85656	3029.88
1.8567	3024.26
1.85685	3017.68
1.856993	3008.45
1.85714	2999.64
1.85728	2989.6
1.85743	2980.59
1.85757	2974.35
1.85771	2973.54
1.85786	2971.99
1.858	2973.88
1.85815	2973.09
1.85829	2975.01
1.858436	2974.69
1.85858	2975.17
1.85872	2974.18
1.85887	2972.86
1.85901	2969.91
1.85916	2968.08
1.8593	2966.53
1.85945	2962.54
1.85959	2958.35
1.85974	2952.57
1.85988	2946.48
1.860026	2942.54
1.86017	2937.3
1.86032	2932.05
1.86046	2928.21
1.860605	2924.54
1.86075	2919.14
1.86089	2914.66
1.86104	2911.97
1.86118	2905.06
1.86133	2898.55
1.86147	2891.71
1.86162	2886.07
1.86176	2883.1
1.86191	2883.22
1.862054	2883.68
1.8622	2882.66
1.86234	2882.32
1.86249	2881.53
1.86263	2878.668
1.86278	2874.85
1.86292	2870.833
1.86307	2867.43
1.86322	2867.16
1.86336	2864.86
1.86351	2860.13
1.86365	2853.75
1.8638	2846.27
1.86394	2839.49
1.86409	2832.9
1.86423	2828.29
1.86438	2823.15
1.86452	2820.54
1.86467	2816.35
1.86481	2812.56
1.86496	2810.81
1.8651	2810.88
1.86525	2810.89
1.865396	2812.031
1.86554	2812.686
1.86569	2815.23
1.86583	2816.14
1.86598	2814.52
1.86612	2811.16
1.86627	2805.2
1.86642	2798.45
1.86656	2789.83
1.86671	2782.47
1.866853	2775.478
1.867	2767.156
1.86714	2759.54
1.86729	2750.8
1.86744	2743.47
1.86758	2738.14
1.86773	2736.53
1.86787	2738.04
1.86802	2737.48
1.86817	2736.54
1.86831	2735.96
1.86846	2734.69
1.8686	2733.5
1.86875	2729.82
1.8689	2725.35
1.86904	2719.46
1.869189	2713.6
1.86934	2709.47
1.86948	2705.53
1.86963	2703.6
1.86977	2700.95
1.86992	2698.77
1.87007	2699.62
1.870213	2700.45
1.87036	2699.93
1.87051	2699.28
1.87065	2697.08
1.8708	2693.51
1.87095	2686.72
1.87109	2679.11
1.87124	2670.92
1.87138	2657.71
1.87153	2651.48
1.87168	2646.17
1.87182	2641.48
1.87197	2637.07
1.87212	2632.877
1.87226	2631.85
1.87241	2630.88
1.87256	2631.6
1.872705	2630.16
1.872852	2628.57
1.873	2627.01
1.87315	2622.8
1.87329	2619.74
1.87344	2616.53
1.87359	2611.28
1.87373	2603.939
1.87388	2596.42
1.87403	2589.57
1.87417	2581.23
1.87432	2574.6
1.87447	2569.699
1.87462	2565.595
1.87476	2560.821
1.87491	2553.53
1.87506	2545.988
1.8752	2538.06
1.87535	2529.41
1.8755	2518.38
1.87565	2506.63
1.87579	2494.62
1.87594	2483.94
1.87609	2472.65
1.876235	2463.49
1.87638	2456.34
1.87653	2447.87
1.87668	2443.65
1.87682	2440.32
1.87697	2438.37
1.87712	2435.71
1.87727	2436.3
1.87741	2433.84
1.87756	2429.33
1.87771	2424.63
1.87786	2420.56
1.87801	2414.708
1.87815	2407.98
1.8783	2399.93
1.87845	2390.95
1.8786	2382.554
1.87874	2373.25
1.87889	2364.8
1.87904	2355.95
1.87919	2347.14
1.87934	2337.56
1.87948	2328.81
1.87963	2319.29
1.87978	2309.79
1.87993	2297.42
1.88008	2284.7
1.88022	2274.74
1.88037	2267.23
1.88052	2257.17
1.88067	2247.77
1.88082	2238.82
1.88096	2228.91
1.881112	2220.03
1.88126	2213.42
1.88141	2209.115
1.88156	2205.64
1.8817	2201.66
1.88185	2198.48
1.882	2194.92
1.88215	2193.07
1.8823	2190.45
1.88245	2189.981
1.8826	2188.27
1.88274	2185.73
1.882892	2179.77
1.88304	2174.71
1.88319	2167.09
1.88334	2158.55
1.88349	2151.24
1.88363	2142
1.88378	2130.3
1.88393	2116.94
1.88408	2102.21
1.88423	2090.48
1.88438	2078.01
1.88453	2070.01
1.88468	2062.97
1.88482	2057.2
1.88497	2053.14
1.88512	2050.42
1.88527	2047.38
1.88542	2045.82
1.88557	2042.78
1.88572	2037.12
1.88587	2031.25
1.88602	2027.12
1.88616	2021.09
1.88631	2012.84
1.88646	2005.3
1.88661	1995.46
1.88676	1986.04
1.88691	1976.03
1.88706	1968.334
1.88721	1961.65
1.88736	1955.57
1.88751	1951.9
1.88766	1948.12
1.88781	1944.734
1.887955	1943.77
1.8881	1942.25
1.88825	1937.42
1.8884	1932.44
1.88855	1928.95
1.8887	1924.519
1.88885	1922.25
1.889001	1916.34
1.88915	1909.51
1.8893	1902.23
1.88945	1898.04
1.8896	1893.34
1.88975	1890.37
1.8899	1887.7
1.89005	1883.82
1.8902	1879.89
1.89035	1875.11
1.8905	1871.83
1.89065	1869.24
1.8908	1866.175
1.89095	1861.74
1.8911	1858.73
1.89125	1852.68
1.8914	1848.61
1.89155	1845.5
1.8917	1841.6
1.89185	1836.31
1.892	1828.9
1.89215	1822.56
1.8923	1816.86
1.89245	1813.59
1.8926	1810.7
1.89275	1808.03
1.8929	1804.75
1.89305	1798.69
1.8932	1793.55
1.89335	1788.19
1.8935	1785.34
1.89365	1781.65
1.8938	1778.01
1.89395	1774.47
1.8941	1771.267
1.89425	1766.18
1.8944	1763.32
1.89455	1760.09
1.8947	1757.32
1.894851	1752.37
1.895	1747.92
1.895152	1744.89
1.8953	1741.66
1.89545	1739.2
1.8956	1735.9
1.89575	1730.35
1.895905	1724.76
1.89606	1718.74
1.89621	1714.92
1.89636	1710.51
1.89651	1706.68
1.89666	1701.71
1.89681	1697.54
1.89696	1691.69
1.89711	1684.56
1.897262	1678.46
1.89741	1670.6
1.89756	1663.35
1.89771	1655.172
1.89787	1646.99
1.89802	1640.61
1.89817	1635.587
1.89832	1630.85
1.89847	1624.52
1.898621	1620.09
1.89877	1614.8
1.89892	1612.1
1.89907	1609.95
1.89923	1607.17
1.899377	1604.99
1.89953	1604.39
1.89968	1603.56
1.89983	1602.57
1.89998	1600.6
1.90013	1599.34
1.900285	1597.78
1.90044	1593.81
1.90059	1588.94
1.90074	1583.26
1.90089	1578.068
1.90104	1572.86
1.90119	1568.43
1.90135	1563.47
1.9015	1557.98
1.90165	1553.12
1.9018	1545.06
1.90195	1539.447
1.9021	1536.324
1.90226	1533.51
1.90241	1531.921
1.90256	1531.13
1.90271	1529.63
1.90286	1528.49
1.90301	1528.43
1.90317	1527.489
1.90332	1523.88
1.90347	1514.91
1.903622	1509.47
1.90377	1504.44
1.903926	1500.66
1.904078	1497.15
1.90423	1493.73
1.90438	1488.93
1.90453	1483.31
1.90469	1480.26
1.90484	1476.66
1.90499	1473.84
1.905143	1470.8
1.9053	1467.59
1.90545	1465.72
1.9056	1464.05
1.90575	1461.28
1.9059	1458.49
1.90606	1455.81
1.90621	1453.06
1.90636	1450.77
1.90651	1447.25
1.90667	1443.75
1.90682	1439.5
1.90697	1435.51
1.907124	1432.79
1.90728	1427.78
1.90743	1422.05
1.90758	1416.68
1.90773	1410.48
1.90789	1401.36
1.90804	1394.06
1.90819	1388.4
1.90835	1386.28
1.9085	1383.5
1.908651	1378.95
1.9088	1375.236
1.90896	1372.979
1.90911	1373.42
1.90926	1372.64
1.90942	1372.19
1.90957	1369.56
1.90972	1367.24
1.90987	1362.95
1.91003	1360.77
1.91018	1358.53
1.91033	1355.729
1.91049	1351.43
1.91064	1345.85
1.91079	1341.28
1.910946	1335.33
1.9111	1330.65
1.91125	1325.61
1.91141	1320.27
1.911559	1315.56
1.91171	1311.06
1.91187	1307.57
1.912019	1302.5
1.91217	1298.69
1.91233	1293.52
1.91248	1290.36
1.91263	1286.55
1.91279	1283.99
1.91294	1281.15
1.91309	1279.66
1.913247	1277.69
1.9134	1275.32
1.91355	1273.67
1.91371	1272.26
1.91386	1270.86
1.91402	1268.07
1.91417	1263.56
1.91432	1259.31
1.91448	1254.078
1.91463	1249.55
1.91478	1245.674
1.91494	1240.58
1.915092	1235.08
1.91525	1230.2
1.9154	1224.228
1.91555	1215.16
1.91571	1203.19