File: bartels lab/3642 MoS2 on 1012 WG/Raman_5_21_2015_Dominic/C3_R2/3642 8401x 3303y PL 600 T2 D1 100x.txt
1.7708	2169.15
1.77093	2184.35
1.77106	2199.83
1.77119	2206.48
1.77132	2212.42
1.771448	2217.94
1.77158	2223.42
1.77171	2228.49
1.771839	2233.48
1.77197	2238
1.7721	2242.65
1.77223	2245.07
1.77236	2247.42
1.77249	2249.8
1.77262	2256.07
1.77275	2263.11
1.77288	2271.68
1.77301	2281.68
1.77314	2291.17
1.77327	2297.25
1.77341	2293.5
1.77354	2265.78
1.77367	2305.44
1.773797	2322.45
1.77393	2330.24
1.77406	2334.39
1.77419	2335.082
1.77432	2335.76
1.77445	2337.76
1.77458	2341
1.77471	2347.31
1.77484	2355.06
1.77497	2363.71
1.775105	2372.813
1.77524	2381.88
1.77537	2390.38
1.7755	2398.82
1.77563	2406.72
1.77576	2414.58
1.77589	2421.8
1.77602	2428.269
1.77615	2433.86
1.77628	2436.52
1.776415	2436.6
1.77655	2442.11
1.77668	2448.36
1.77681	2454.92
1.77694	2461.57
1.77707	2467.23
1.777202	2473.614
1.77733	2479.76
1.77746	2485.69
1.777596	2491.36
1.77773	2496.64
1.77786	2501.45
1.77799	2505.85
1.77812	2509.55
1.77825	2513.29
1.77838	2515.68
1.77852	2517.17
1.77865	2518.77
1.77878	2520.343
1.77891	2522.39
1.77904	2526.55
1.77917	2532.15
1.7793	2538.13
1.77944	2545.53
1.77957	2553.95
1.7797	2563.41
1.77983	2573.908
1.77996	2584.77
1.78009	2595.31
1.780226	2605.522
1.78036	2614.54
1.78049	2622.084
1.78062	2628.46
1.780753	2633.66
1.78088	2638.17
1.78102	2641.666
1.78115	2644.42
1.78128	2646.86
1.78141	2647.3
1.78154	2647.4
1.78168	2647.76
1.78181	2648.73
1.78194	2651.68
1.78207	2657.62
1.782204	2664.11
1.78234	2671.23
1.78247	2679.929
1.7826	2689.467
1.78273	2699.56
1.78286	2709.79
1.783	2719.512
1.78313	2728.48
1.78326	2735.9
1.78339	2743.66
1.78353	2750.62
1.78366	2756.6
1.78379	2761.92
1.78392	2764.62
1.78405	2765.66
1.784187	2766.3
1.78432	2767.38
1.78445	2770.86
1.784584	2773.66
1.78472	2777.46
1.784849	2782.32
1.78498	2788.05
1.78511	2795.67
1.78525	2805.29
1.78538	2817.64
1.78551	2831.23
1.78564	2845.24
1.78578	2859.74
1.78591	2872.88
1.78604	2885.67
1.78617	2897.186
1.78631	2907.32
1.78644	2916.33
1.78657	2924.48
1.78671	2930.82
1.78684	2934.81
1.786971	2938.02
1.7871	2940.6
1.78724	2943.19
1.78737	2949.94
1.7875	2958.32
1.78764	2967.46
1.78777	2976.82
1.7879	2985.74
1.78803	2994.35
1.78817	3002.76
1.7883	3010.88
1.788433	3018.67
1.788566	3026.4
1.788699	3034.04
1.78883	3041.573
1.78897	3049.21
1.7891	3056.93
1.78923	3065.15
1.78936	3073.53
1.789498	3082.26
1.78963	3091.4
1.78976	3100.92
1.7899	3111.16
1.790031	3122.38
1.79016	3133.58
1.7903	3143.97
1.79043	3147.543
1.79056	3155.67
1.7907	3164.09
1.79083	3174.31
1.79096	3185.69
1.7911	3198.81
1.79123	3211.89
1.79136	3225.21
1.7915	3238.01
1.79163	3249.74
1.79177	3259.248
1.791899	3267.43
1.79203	3274.92
1.79217	3282.5
1.7923	3289.37
1.79243	3297.12
1.79257	3304.91
1.792701	3312.99
1.79283	3321.71
1.79297	3330.37
1.793102	3341.14
1.79324	3354.07
1.79337	3367.14
1.7935	3380.47
1.79364	3394.13
1.79377	3407.56
1.79391	3419.05
1.79404	3430.76
1.794173	3441.77
1.794307	3451.4
1.794441	3460.4
1.79458	3469.56
1.794709	3479.59
1.794843	3492.57
1.79498	3506.55
1.79511	3520.9
1.79525	3535.81
1.79538	3547.62
1.79551	3558.957
1.79565	3570.45
1.79578	3583.26
1.79592	3595.41
1.79605	3607.83
1.79618	3618.92
1.796319	3630.39
1.79645	3638.13
1.79659	3641.48
1.79672	3646.62
1.79686	3654.63
1.79699	3667.658
1.79713	3683.853
1.79726	3704.92
1.797394	3719.68
1.79753	3749.623
1.79766	3772.1
1.7978	3786.34
1.79793	3795.58
1.79807	3800.62
1.7982	3807.8
1.79834	3821.97
1.79847	3832.6
1.79861	3842.34
1.79874	3851.15
1.79887	3859.26
1.79901	3867.1
1.79914	3874.9
1.79928	3882.5
1.79941	3890.33
1.79955	3898.59
1.79968	3906.07
1.799818	3913.54
1.79995	3921
1.80009	3929.96
1.80022	3939.58
1.80036	3951.709
1.80049	3966.06
1.80063	3979.92
1.80076	3993.66
1.8009	4006.32
1.80103	4019.41
1.80117	4032.134
1.8013	4045.03
1.80144	4058.09
1.80157	4070.95
1.80171	4083.72
1.80184	4096.042
1.80198	4107.7
1.80211	4118.97
1.802249	4129.83
1.80238	4140.04
1.80252	4149.6
1.80265	4158.272
1.80279	4166.41
1.80293	4173.73
1.80306	4180.75
1.8032	4186.65
1.80333	4192.4
1.80347	4197.86
1.8036	4203.65
1.803738	4210.04
1.80387	4218.02
1.80401	4227.5
1.80414	4237.12
1.80428	4246.416
1.80442	4255.55
1.80455	4263.53
1.804687	4271.12
1.80482	4278.42
1.80496	4285.55
1.805094	4292.69
1.80523	4300.14
1.80537	4307.95
1.8055	4316.1
1.80564	4325.04
1.80577	4335.19
1.80591	4345.72
1.80604	4357.55
1.80618	4370.16
1.80632	4382.53
1.80645	4394.61
1.80659	4404.67
1.80672	4413.69
1.80686	4418.76
1.807	4423.14
1.80713	4426.85
1.80727	4432.36
1.8074	4439.28
1.80754	4447
1.80768	4455.76
1.80781	4467.32
1.80795	4480.8
1.808085	4495.8
1.80822	4508.24
1.80836	4520.4
1.80849	4534.53
1.80863	4547.54
1.80877	4555.31
1.8089	4563.38
1.80904	4559.13
1.80918	4569.49
1.80931	4581.56
1.809448	4594.168
1.80958	4607.11
1.80972	4621.03
1.80986	4634.72
1.80999	4648.23
1.81013	4661.22
1.81027	4673.33
1.8104	4684.52
1.81054	4695.45
1.81068	4705.25
1.81081	4714.064
1.81095	4722.14
1.81109	4730.32
1.81122	4737.85
1.81136	4745.98
1.8115	4754.72
1.81163	4765.16
1.81177	4777.23
1.81191	4791.81
1.81204	4807.74
1.81218	4824.35
1.81232	4841.69
1.81245	4858.38
1.81259	4874.07
1.81273	4889.16
1.81287	4905.02
1.813	4921.45
1.81314	4938.49
1.81328	4957
1.81341	4975.75
1.81355	4994.35
1.81369	5012.63
1.81382	5029.99
1.81396	5046.34
1.8141	5060.61
1.814236	5073.6
1.81437	5091.166
1.81451	5110.39
1.81465	5129.66
1.814785	5148.89
1.81492	5167.5
1.81506	5186.63
1.815197	5206.39
1.81533	5226.019
1.81547	5246.39
1.815609	5266.61
1.81575	5287.21
1.81588	5307.65
1.81602	5327.67
1.81616	5346.06
1.8163	5363.6
1.816434	5380.72
1.81657	5402.03
1.81671	5426
1.81685	5450.65
1.81698	5475.51
1.81712	5499.66
1.81726	5522.68
1.8174	5544.85
1.81753	5566.3
1.81767	5586.97
1.81781	5606.29
1.81795	5624.2
1.818086	5641.23
1.818224	5656.17
1.81836	5670.96
1.8185	5685.61
1.81864	5700.71
1.81878	5717.6
1.81891	5735.35
1.81905	5754.93
1.81919	5775
1.81933	5796.42
1.81947	5818.43
1.8196	5841.21
1.81974	5865.24
1.81988	5890.37
1.82002	5916.4
1.82016	5941.83
1.82029	5957.32
1.82043	5969.29
1.82057	5976.03
1.82071	5978.96
1.82085	5983.6
1.82099	5985.7
1.82112	5991.187
1.82126	6000.13
1.8214	6010.93
1.82154	6047.87
1.82168	6070.01
1.82182	6090.68
1.82195	6113.08
1.82209	6136.18
1.82223	6159.897
1.822369	6185.78
1.82251	6210.96
1.82265	6235.15
1.82278	6252.6
1.82292	6265.42
1.82306	6272.4
1.8232	6279.67
1.82334	6288.55
1.82348	6296.15
1.82362	6301.73
1.82376	6305.34
1.823894	6305.76
1.82403	6301.46
1.82417	6298.31
1.82431	6305.52
1.82445	6318.37
1.82459	6334.02
1.82473	6348.59
1.82487	6364.11
1.825	6387.2
1.82514	6406.43
1.82528	6423.94
1.82542	6440.26
1.82556	6455.56
1.8257	6469.02
1.82584	6480.21
1.825978	6488.43
1.826117	6495.26
1.82626	6505.04
1.8264	6517.22
1.82653	6530.01
1.82667	6543.29
1.82681	6556.11
1.82695	6569.2
1.82709	6582.64
1.82723	6594.71
1.82737	6603.98
1.82751	6608.58
1.82765	6609.43
1.82779	6609.65
1.82793	6616.8
1.82807	6625.49
1.82821	6635.09
1.82835	6643.23
1.82849	6651.18
1.828625	6660.84
1.82876	6670.99
1.8289	6684.99
1.82904	6699.64
1.82918	6713.79
1.82932	6724.58
1.82946	6733.38
1.8296	6739.83
1.82974	6745.01
1.82988	6750.1
1.83002	6755.9
1.830161	6762.1
1.8303	6768.8
1.83044	6776.74
1.83058	6785.24
1.83072	6795.1
1.83086	6805.77
1.831	6817.02
1.83114	6830.13
1.83128	6844.13
1.83142	6858.94
1.83156	6873.84
1.8317	6888.39
1.83184	6903.35
1.83198	6916.38
1.83212	6929.793
1.83226	6942.96
1.8324	6957.16
1.83254	6974.46
1.83268	6994.34
1.83282	7012.84
1.83296	7030.53
1.8331	7046.38
1.83324	7061.39
1.83338	7076.11
1.83352	7090.833
1.83366	7106.67
1.8338	7121.72
1.83394	7136.88
1.83408	7152.14
1.83422	7167.688
1.83436	7182.98
1.83451	7199.94
1.83465	7216.59
1.83479	7231.59
1.83493	7243.99
1.83507	7256.37
1.83521	7268.61
1.83535	7281.584
1.83549	7293.18
1.83563	7305.16
1.83577	7318.55
1.83591	7333.33
1.83605	7350.48
1.83619	7369.95
1.83633	7390.32
1.83647	7412.28
1.83662	7434.792
1.836756	7454.98
1.8369	7472.165
1.83704	7488.94
1.83718	7505.49
1.83732	7522.97
1.83746	7539.56
1.8376	7555.57
1.83774	7570.56
1.83788	7585.14
1.83802	7599.75
1.83817	7614.39
1.83831	7627.66
1.838448	7640.4
1.83859	7652.49
1.83873	7664.18
1.83887	7675.68
1.83901	7686.76
1.83915	7697.51
1.8393	7707.62
1.83944	7717.62
1.83958	7727.45
1.83972	7737.44
1.83986	7747.98
1.84	7761.14
1.84014	7772.79
1.84028	7785.25
1.84043	7797.48
1.84057	7813.91
1.84071	7832.53
1.84085	7849.9
1.84099	7864.438
1.84113	7877.74
1.84128	7890.26
1.841417	7903.54
1.84156	7915.94
1.8417	7928.55
1.84184	7940.94
1.84198	7952.47
1.84213	7962.74
1.842267	7972.03
1.84241	7978.71
1.84255	7983.36
1.84269	7986.043
1.84283	7982.6
1.84298	7976.17
1.84312	7969.24
1.84326	7962.85
1.8434	7957.05
1.84354	7951.35
1.84369	7944.71
1.84383	7939.55
1.84397	7937.229
1.844112	7939.26
1.844254	7944.61
1.8444	7951.63
1.84454	7959.84
1.84468	7969.29
1.84482	7977.38
1.84496	7985.64
1.84511	7992.91
1.84525	8001.49
1.84539	8004.42
1.84553	8002.23
1.84568	7993.4
1.84582	7978.22
1.84596	7954.01
1.8461	7946.93
1.84625	7941.147
1.846388	7936.17
1.84653	7932.7
1.84667	7930.64
1.84682	7931.958
1.84696	7932.04
1.8471	7927.3
1.84724	7920.147
1.84739	7904.77
1.84753	7898.14
1.84767	7898.47
1.84781	7899.73
1.84796	7899.59
1.8481	7898.02
1.84824	7895.46
1.84838	7891.63
1.84853	7886.92
1.84867	7881.97
1.84881	7877.27
1.84896	7872.86
1.8491	7871.06
1.84924	7869.6
1.84938	7867.83
1.84953	7864.82
1.84967	7859.82
1.84981	7853.99
1.84996	7847.24
1.8501	7839.791
1.85024	7831.71
1.85039	7822.95
1.85053	7814.13
1.85067	7803.58
1.85081	7792.55
1.85096	7781.74
1.8511	7770.8
1.85124	7761.2
1.85139	7754.89
1.85153	7748.06
1.85167	7741.11
1.85182	7733.65
1.851961	7725.877
1.8521	7714.43
1.85225	7702.76
1.852391	7691.62
1.85253	7682.91
1.85268	7675.04
1.85282	7667.89
1.852965	7661.09
1.85311	7654.95
1.85325	7649.72
1.8534	7643.999
1.85354	7638.71
1.85368	7634.61
1.85383	7636.96
1.85397	7640.74
1.85411	7643.915
1.85426	7644.812
1.8544	7642.97
1.85455	7639.15
1.854689	7633.08
1.85483	7625.14
1.85498	7615.27
1.85512	7603.93
1.85526	7590.186
1.85541	7574.9
1.85555	7557.5
1.8557	7537.437
1.85584	7516.26
1.85598	7495.37
1.85613	7477.25
1.85627	7459.54
1.85642	7446.24
1.85656	7434.34
1.8567	7423.106
1.85685	7413.07
1.856993	7401.83
1.85714	7389.103
1.85728	7376.55
1.85743	7364.31
1.85757	7352.94
1.85771	7341.46
1.85786	7330.58
1.858	7319.22
1.85815	7307.48
1.85829	7295.44
1.858436	7282.37
1.85858	7268.71
1.85872	7254.6
1.85887	7240.16
1.85901	7225.84
1.85916	7211.47
1.8593	7197.27
1.85945	7182.91
1.85959	7168.28
1.85974	7153.25
1.85988	7137.62
1.860026	7121.29
1.86017	7103.68
1.86032	7085.17
1.86046	7066.35
1.860605	7046.07
1.86075	7024.83
1.86089	7003.09
1.86104	6981.229
1.86118	6959.2
1.86133	6937.73
1.86147	6916.88
1.86162	6896.81
1.86176	6878.91
1.86191	6860.66
1.862054	6843
1.8622	6826.41
1.86234	6815.76
1.86249	6805.24
1.86263	6791.93
1.86278	6779.7
1.86292	6767.57
1.86307	6755.05
1.86322	6742.02
1.86336	6728.2
1.86351	6713.34
1.86365	6696.13
1.8638	6677.81
1.86394	6657.51
1.86409	6636.54
1.86423	6614.64
1.86438	6592.3
1.86452	6570.248
1.86467	6548.51
1.86481	6526.06
1.86496	6503.14
1.8651	6481.043
1.86525	6459.73
1.865396	6439.16
1.86554	6421.11
1.86569	6405.67
1.86583	6392.42
1.86598	6380.62
1.86612	6369.8
1.86627	6359.61
1.86642	6348.61
1.86656	6338.17
1.86671	6327.4
1.866853	6316.49
1.867	6305.2
1.86714	6293.13
1.86729	6280.167
1.86744	6266.48
1.86758	6251.72
1.86773	6235.98
1.86787	6219.36
1.86802	6200.85
1.86817	6181.53
1.86831	6161.79
1.86846	6141.82
1.8686	6121.46
1.86875	6101.37
1.8689	6079.937
1.86904	6059.39
1.869189	6039.28
1.86934	6019
1.86948	5999.09
1.86963	5976.54
1.86977	5953.27
1.86992	5932.53
1.87007	5914.14
1.870213	5896.8
1.87036	5880.43
1.87051	5863.92
1.87065	5847.957
1.8708	5831.16
1.87095	5814.38
1.87109	5797.07
1.87124	5778.94
1.87138	5759.27
1.87153	5738.32
1.87168	5713.94
1.87182	5687.853
1.87197	5662.32
1.87212	5639.62
1.87226	5618.26
1.87241	5597.91
1.87256	5579.83
1.872705	5563.668
1.872852	5548.44
1.873	5533.53
1.87315	5518.03
1.87329	5501.91
1.87344	5485.04
1.87359	5467.314
1.87373	5448.11
1.87388	5427.42
1.87403	5405.17
1.87417	5380.96
1.87432	5355.2
1.87447	5328.45
1.87462	5302.19
1.87476	5276.2
1.87491	5251.57
1.87506	5227.2
1.8752	5203.23
1.87535	5179.53
1.8755	5156.22
1.87565	5132.49
1.87579	5108.334
1.87594	5084.33
1.87609	5060.83
1.876235	5039.5
1.87638	5020.95
1.87653	4998.74
1.87668	4973.93
1.87682	4949.38
1.87697	4924.31
1.87712	4899.96
1.87727	4875.57
1.87741	4852.6
1.87756	4829.12
1.87771	4805.23
1.87786	4781.04
1.87801	4756.71
1.87815	4733.11
1.8783	4710.731
1.87845	4690.57
1.8786	4675.24
1.87874	4650.67
1.87889	4625.63
1.87904	4600.55
1.87919	4574.95
1.87934	4547.208
1.87948	4518.96
1.87963	4490.02
1.87978	4461.41
1.87993	4433.43
1.88008	4405.91
1.88022	4380.07
1.88037	4355.2
1.88052	4331.47
1.88067	4308.58
1.88082	4286.42
1.88096	4266.22
1.881112	4246.81
1.88126	4227.95
1.88141	4209.48
1.88156	4189.95
1.8817	4170.94
1.88185	4152.09
1.882	4133.44
1.88215	4113.02
1.8823	4092.011
1.88245	4069.92
1.8826	4051.16
1.88274	4030.29
1.882892	4007.46
1.88304	3981.239
1.88319	3953.5
1.88334	3922.49
1.88349	3885.603
1.88363	3852.377
1.88378	3827.4
1.88393	3810.64
1.88408	3801.59
1.88423	3786.66
1.88438	3758.21
1.88453	3739.47
1.88468	3720.95
1.88482	3702.81
1.88497	3684.94
1.88512	3667.27
1.88527	3649.63
1.88542	3631.95
1.88557	3614.31
1.88572	3596.61
1.88587	3578.698
1.88602	3560.32
1.88616	3541.5
1.88631	3522.18
1.88646	3502.47
1.88661	3482.59
1.88676	3462.67
1.88691	3442.98
1.88706	3423.34
1.88721	3404.47
1.88736	3386.48
1.88751	3369.27
1.88766	3352.72
1.88781	3336.5
1.887955	3320.99
1.8881	3304.41
1.88825	3287.74
1.8884	3270.9
1.88855	3254.26
1.8887	3238.77
1.88885	3224.187
1.889001	3210.3
1.88915	3196.32
1.8893	3182.2
1.88945	3168.36
1.8896	3154.37
1.88975	3140.77
1.8899	3128.14
1.89005	3115.71
1.8902	3103.51
1.89035	3092.52
1.8905	3081.63
1.89065	3068.69
1.8908	3050.43
1.89095	3025.61
1.8911	3001.04
1.89125	2978.76
1.8914	2960.43
1.89155	2945.45
1.8917	2933.45
1.89185	2925.25
1.892	2920.56
1.89215	2919.36
1.8923	2920.47
1.89245	2919.01
1.8926	2917.43
1.89275	2885.83
1.8929	2872.81
1.89305	2858.87
1.8932	2845.06
1.89335	2831.46
1.8935	2817.687
1.89365	2803.74
1.8938	2789.36
1.89395	2774.585
1.8941	2759.03
1.89425	2742.98
1.8944	2725.95
1.89455	2706.26
1.8947	2687.11
1.894851	2675.48
1.895	2667.03
1.895152	2658.81
1.8953	2649.65
1.89545	2639.37
1.8956	2628.17
1.89575	2613.61
1.895905	2598.36
1.89606	2582.45
1.89621	2566.354
1.89636	2552.554
1.89651	2542.022
1.89666	2531.52
1.89681	2520.83
1.89696	2509.11
1.89711	2496.863
1.897262	2484.19
1.89741	2471.16
1.89756	2457.58
1.89771	2443.69
1.89787	2429.72
1.89802	2415.91
1.89817	2401.85
1.89832	2388.24
1.89847	2374.86
1.898621	2361.83
1.89877	2349.84
1.89892	2339.07
1.89907	2330.43
1.89923	2323.33
1.899377	2316.615
1.89953	2309.86
1.89968	2301.92
1.89983	2293.75
1.89998	2284.34
1.90013	2272.98
1.900285	2260.39
1.90044	2247.03
1.90059	2232.42
1.90074	2217.51
1.90089	2202.78
1.90104	2189.09
1.90119	2175.84
1.90135	2163.21
1.9015	2151.02
1.90165	2139.8
1.9018	2129.47
1.90195	2119.64
1.9021	2110.103
1.90226	2100.84
1.90241	2091.51
1.90256	2082.05
1.90271	2072.33
1.90286	2062.24
1.90301	2051.96
1.90317	2041.91
1.90332	2032.34
1.90347	2023.14
1.903622	2014.23
1.90377	2005.6
1.903926	1997.18
1.904078	1988.91
1.90423	1980.59
1.90438	1972.07
1.90453	1963.365
1.90469	1954.296
1.90484	1944.74
1.90499	1934.58
1.905143	1924.03
1.9053	1913.467
1.90545	1903.29
1.9056	1893.5
1.90575	1884.33
1.9059	1875.964
1.90606	1868.85
1.90621	1862.222
1.90636	1855.71
1.90651	1849.25
1.90667	1842.44
1.90682	1834.26
1.90697	1824.25
1.907124	1815.38
1.90728	1807.29
1.90743	1799.7
1.90758	1793.6
1.90773	1787
1.90789	1779.709
1.90804	1771.83
1.90819	1762.73
1.90835	1753.38
1.9085	1742.71
1.908651	1731.12
1.9088	1719.4
1.90896	1707.83
1.90911	1696.66
1.90926	1686
1.90942	1676.13
1.90957	1666.613
1.90972	1657.9
1.90987	1650.036
1.91003	1643.19
1.91018	1637.2
1.91033	1631.9
1.91049	1627.05
1.91064	1622.65
1.91079	1618.15
1.910946	1613.51
1.9111	1608.63
1.91125	1603.36
1.91141	1597.44
1.911559	1590.95
1.91171	1583.84
1.91187	1576.073
1.912019	1567.54
1.91217	1558.21
1.91233	1548.23
1.91248	1537.46
1.91263	1526.53
1.91279	1515.76
1.91294	1505.34
1.91309	1495.64
1.913247	1486.78
1.9134	1478.74
1.91355	1471.51
1.91371	1465.053
1.91386	1459.36
1.91402	1454.16
1.91417	1449.55
1.91432	1445.93
1.91448	1442.76
1.91463	1440.11
1.91478	1438.03
1.91494	1436.08
1.915092	1433.36
1.91525	1429.579
1.9154	1422.72
1.91555	1413.28
1.91571	1403.22