File: bartels lab/3642 MoS2 on 1012 WG/Raman_5_21_2015_Dominic/C3_R2/3642 8401x 3291y PL 600 T2 D1 100x.txt
1.7708	2739.03
1.77093	2737.83
1.77106	2739.22
1.77119	2743.58
1.77132	2750.55
1.771448	2760.38
1.77158	2773.5
1.77171	2789.42
1.771839	2805.28
1.77197	2818.03
1.7721	2829.41
1.77223	2839.1
1.77236	2848.01
1.77249	2856.44
1.77262	2864.75
1.77275	2872.57
1.77288	2880.375
1.77301	2888.86
1.77314	2897.574
1.77327	2906.9
1.77341	2913.29
1.77354	2918.303
1.77367	2923.51
1.773797	2928.86
1.77393	2934.73
1.77406	2940.75
1.77419	2947.17
1.77432	2953.77
1.77445	2960.593
1.77458	2967.646
1.77471	2975.09
1.77484	2982.68
1.77497	2990.511
1.775105	2998.72
1.77524	3007.08
1.77537	3015.47
1.7755	3023.86
1.77563	3031.91
1.77576	3039.36
1.77589	3046.43
1.77602	3052.76
1.77615	3059.89
1.77628	3066.958
1.776415	3074.43
1.77655	3081.66
1.77668	3088.85
1.77681	3095.94
1.77694	3102.95
1.77707	3109.87
1.777202	3116.62
1.77733	3123.16
1.77746	3129.58
1.777596	3135.76
1.77773	3141.38
1.77786	3147.2
1.77799	3153.25
1.77812	3159.88
1.77825	3169.29
1.77838	3180.469
1.77852	3191.73
1.77865	3202.94
1.77878	3213.61
1.77891	3222.7
1.77904	3230.94
1.77917	3238.48
1.7793	3245.11
1.77944	3251.01
1.77957	3256.321
1.7797	3261.12
1.77983	3265.47
1.77996	3269.689
1.78009	3274.24
1.780226	3277.78
1.78036	3281.63
1.78049	3286.58
1.78062	3295.27
1.780753	3306.52
1.78088	3319.11
1.78102	3332.01
1.78115	3344.2
1.78128	3356.05
1.78141	3367.53
1.78154	3378.751
1.78168	3389
1.78181	3398.4
1.78194	3406.79
1.78207	3414.5
1.782204	3421.72
1.78234	3429.468
1.78247	3434.27
1.7826	3438.7
1.78273	3442.53
1.78286	3446.605
1.783	3451.66
1.78313	3456.78
1.78326	3462.56
1.78339	3468.54
1.78353	3474.81
1.78366	3481.34
1.78379	3488.26
1.78392	3495.48
1.78405	3503.01
1.784187	3510.93
1.78432	3519.14
1.78445	3527.72
1.784584	3536.69
1.78472	3546.27
1.784849	3556.58
1.78498	3567.1
1.78511	3578.62
1.78525	3590.41
1.78538	3602.095
1.78551	3614.01
1.78564	3624.15
1.78578	3633.54
1.78591	3642.58
1.78604	3651.67
1.78617	3660.37
1.78631	3669.69
1.78644	3679.68
1.78657	3689.06
1.78671	3698.31
1.78684	3707.25
1.786971	3714.89
1.7871	3720.96
1.78724	3727
1.78737	3733.16
1.7875	3739.66
1.78764	3747.501
1.78777	3756.44
1.7879	3766.021
1.78803	3777.28
1.78817	3789.51
1.7883	3802.29
1.788433	3815.33
1.788566	3825.61
1.788699	3836.7
1.78883	3849.03
1.78897	3864.42
1.7891	3880.45
1.78923	3897.18
1.78936	3914.47
1.789498	3931.51
1.78963	3948.92
1.78976	3966.03
1.7899	3982.62
1.790031	3998.07
1.79016	4012
1.7903	4024.66
1.79043	4036.29
1.79056	4046.874
1.7907	4057.02
1.79083	4066.31
1.79096	4075.4
1.7911	4085.17
1.79123	4095.41
1.79136	4106.59
1.7915	4118.99
1.79163	4133.418
1.79177	4148.66
1.791899	4164.32
1.79203	4178.99
1.79217	4193.33
1.7923	4207.08
1.79243	4220.32
1.79257	4232.92
1.792701	4245.084
1.79283	4256.55
1.79297	4267.62
1.793102	4278.55
1.79324	4288.44
1.79337	4298.49
1.7935	4309.56
1.79364	4325.269
1.79377	4341.79
1.79391	4358.8
1.79404	4376.01
1.794173	4392.96
1.794307	4409.56
1.794441	4426.01
1.79458	4442.74
1.794709	4458.59
1.794843	4474.47
1.79498	4490.27
1.79511	4506.06
1.79525	4522.43
1.79538	4540.49
1.79551	4559.354
1.79565	4578.28
1.79578	4597.291
1.79592	4616.07
1.79605	4632.17
1.79618	4648.88
1.796319	4666.88
1.79645	4685.13
1.79659	4702.22
1.79672	4718.48
1.79686	4733.55
1.79699	4746.92
1.79713	4758.37
1.79726	4768.67
1.797394	4777.14
1.79753	4785.73
1.79766	4795.87
1.7978	4807.65
1.79793	4821.25
1.79807	4837.05
1.7982	4855.708
1.79834	4875.54
1.79847	4896.49
1.79861	4918
1.79874	4938.34
1.79887	4958.856
1.79901	4979.01
1.79914	4999.38
1.79928	5020.731
1.79941	5044.84
1.79955	5058.91
1.79968	5071.53
1.799818	5078.189
1.79995	5088.61
1.80009	5101.69
1.80022	5117.63
1.80036	5136.752
1.80049	5158.36
1.80063	5181.29
1.80076	5205.6
1.8009	5227.29
1.80103	5231.51
1.80117	5242.459
1.8013	5253.32
1.80144	5259.47
1.80157	5266.88
1.80171	5271.8
1.80184	5286.166
1.80198	5299.93
1.80211	5313.79
1.802249	5327.95
1.80238	5342.481
1.80252	5358.42
1.80265	5374.96
1.80279	5391.45
1.80293	5407.85
1.80306	5424.13
1.8032	5439.09
1.80333	5453.84
1.80347	5468.21
1.8036	5482.6
1.803738	5495.58
1.80387	5507.88
1.80401	5521.271
1.80414	5535.4
1.80428	5552.08
1.80442	5568.01
1.80455	5582.03
1.804687	5596.92
1.80482	5609.07
1.80496	5615.56
1.805094	5618.23
1.80523	5617.67
1.80537	5616.44
1.8055	5614.13
1.80564	5625.01
1.80577	5639.9
1.80591	5651.71
1.80604	5663.55
1.80618	5676.66
1.80632	5693.03
1.80645	5710.21
1.80659	5726.21
1.80672	5740.96
1.80686	5757.23
1.807	5773.418
1.80713	5786.81
1.80727	5799.44
1.8074	5810.97
1.80754	5820.96
1.80768	5826.87
1.80781	5831.61
1.80795	5843.45
1.808085	5857.2
1.80822	5874.11
1.80836	5891.978
1.80849	5911.08
1.80863	5930.1
1.80877	5950.98
1.8089	5973.1
1.80904	5998.36
1.80918	6017.04
1.80931	6032.69
1.809448	6052.3
1.80958	6072.42
1.80972	6093.47
1.80986	6114.14
1.80999	6133.22
1.81013	6150.31
1.81027	6158.31
1.8104	6169.59
1.81054	6181.41
1.81068	6193.53
1.81081	6204.8
1.81095	6216.17
1.81109	6227.36
1.81122	6248.85
1.81136	6274.45
1.8115	6302.39
1.81163	6328.81
1.81177	6354.06
1.81191	6376.53
1.81204	6398.51
1.81218	6416.92
1.81232	6439.69
1.81245	6461.876
1.81259	6483.89
1.81273	6506.03
1.81287	6528.106
1.813	6550.59
1.81314	6573.68
1.81328	6598.38
1.81341	6616.57
1.81355	6634.53
1.81369	6652.24
1.81382	6670.95
1.81396	6692.57
1.8141	6715.37
1.814236	6738.14
1.81437	6760.88
1.81451	6784.874
1.81465	6809.24
1.814785	6834.89
1.81492	6861.73
1.81506	6893.28
1.815197	6922.95
1.81533	6952.77
1.81547	6981.88
1.815609	7009.55
1.81575	7038.375
1.81588	7072
1.81602	7105.35
1.81616	7134.89
1.8163	7164.69
1.816434	7197.08
1.81657	7230.729
1.81671	7264.89
1.81685	7295.001
1.81698	7323.87
1.81712	7351.28
1.81726	7380.52
1.8174	7408.58
1.81753	7435.19
1.81767	7461.25
1.81781	7485.72
1.81795	7509.835
1.818086	7534.56
1.818224	7561.96
1.81836	7591.92
1.8185	7623.18
1.81864	7658.125
1.81878	7684.91
1.81891	7711.41
1.81905	7738.61
1.81919	7766.47
1.81933	7784.58
1.81947	7803.66
1.8196	7831.57
1.81974	7866.72
1.81988	7915.75
1.82002	7958.45
1.82016	8006.86
1.82029	8051.61
1.82043	8087.99
1.82057	8117.85
1.82071	8139.99
1.82085	8158.9
1.82099	8178.52
1.82112	8198.37
1.82126	8222.09
1.8214	8230.45
1.82154	8243.98
1.82168	8260.48
1.82182	8278.498
1.82195	8295.96
1.82209	8312.81
1.82223	8340.7
1.822369	8367.25
1.82251	8393.623
1.82265	8423.251
1.82278	8453.69
1.82292	8487.41
1.82306	8515.3
1.8232	8548.99
1.82334	8572.93
1.82348	8597.13
1.82362	8620.7
1.82376	8643.3
1.823894	8664.44
1.82403	8683.39
1.82417	8700.64
1.82431	8717.28
1.82445	8737.1
1.82459	8756.14
1.82473	8771.72
1.82487	8786.9
1.825	8804.374
1.82514	8827.04
1.82528	8853.6
1.82542	8877.44
1.82556	8899.09
1.8257	8918.21
1.82584	8934.23
1.825978	8948.29
1.826117	8957.98
1.82626	8969.873
1.8264	8974.93
1.82653	8978.93
1.82667	8984.41
1.82681	8990.33
1.82695	9004.96
1.82709	9021.34
1.82723	9039.84
1.82737	9060.08
1.82751	9079.39
1.82765	9104.46
1.82779	9140.57
1.82793	9170.76
1.82807	9193.25
1.82821	9213.57
1.82835	9233.19
1.82849	9251.31
1.828625	9268.19
1.82876	9283.52
1.8289	9297.16
1.82904	9309.374
1.82918	9320.86
1.82932	9329.58
1.82946	9348.19
1.8296	9371.332
1.82974	9398.96
1.82988	9433.73
1.83002	9452.16
1.830161	9469.78
1.8303	9479.26
1.83044	9490.35
1.83058	9502.51
1.83072	9515.38
1.83086	9528.9
1.831	9544.35
1.83114	9562.77
1.83128	9583.13
1.83142	9615.47
1.83156	9639.01
1.8317	9658.3
1.83184	9682.79
1.83198	9709.333
1.83212	9737.12
1.83226	9765.502
1.8324	9794.68
1.83254	9824.24
1.83268	9854.35
1.83282	9885.49
1.83296	9916.96
1.8331	9947.98
1.83324	9977.27
1.83338	10005.317
1.83352	10030.112
1.83366	10054.693
1.8338	10080.98
1.83394	10107.359
1.83408	10134.178
1.83422	10161.203
1.83436	10187.61
1.83451	10214.242
1.83465	10241.402
1.83479	10268.795
1.83493	10296.903
1.83507	10327.039
1.83521	10358.01
1.83535	10389.555
1.83549	10421.121
1.83563	10452.684
1.83577	10482.121
1.83591	10511.461
1.83605	10540.672
1.83619	10572.996
1.83633	10602.567
1.83647	10632.484
1.83662	10662.721
1.836756	10684.466
1.8369	10711.327
1.83704	10740.025
1.83718	10770.032
1.83732	10798.886
1.83746	10818.36
1.8376	10843.637
1.83774	10865.943
1.83788	10887.313
1.83802	10906.238
1.83817	10921.71
1.83831	10942.28
1.838448	10965.362
1.83859	10988.692
1.83873	11013.39
1.83887	11040.037
1.83901	11069.857
1.83915	11100.262
1.8393	11131.188
1.83944	11159.623
1.83958	11187.436
1.83972	11213.53
1.83986	11236.064
1.84	11255.373
1.84014	11270.756
1.84028	11285.152
1.84043	11304.981
1.84057	11317.351
1.84071	11336.817
1.84085	11352.398
1.84099	11373.406
1.84113	11394.594
1.84128	11415.504
1.841417	11436.688
1.84156	11458.099
1.8417	11479.572
1.84184	11501.558
1.84198	11524.198
1.84213	11546.411
1.842267	11565.664
1.84241	11582.209
1.84255	11595.479
1.84269	11607.354
1.84283	11623.454
1.84298	11632.865
1.84312	11644.2
1.84326	11652.367
1.8434	11655.163
1.84354	11663.124
1.84369	11666.663
1.84383	11672.255
1.84397	11678.799
1.844112	11686.416
1.844254	11694.664
1.8444	11704.682
1.84454	11717.078
1.84468	11724.786
1.84482	11728.743
1.84496	11732.022
1.84511	11735.789
1.84525	11741.433
1.84539	11750.989
1.84553	11759.863
1.84568	11765.592
1.84582	11767.31
1.84596	11768.391
1.8461	11771.31
1.84625	11775.541
1.846388	11799.222
1.84653	11808.286
1.84667	11815.585
1.84682	11822.128
1.84696	11801.219
1.8471	11796.801
1.84724	11790.508
1.84739	11782.681
1.84753	11773.029
1.84767	11760.76
1.84781	11746.717
1.84796	11730.987
1.8481	11715.236
1.84824	11702.715
1.84838	11692.43
1.84853	11684.174
1.84867	11676.462
1.84881	11666.387
1.84896	11653.775
1.8491	11654.635
1.84924	11658.624
1.84938	11664.156
1.84953	11670.675
1.84967	11679.909
1.84981	11683.342
1.84996	11691.334
1.8501	11696.299
1.85024	11700.232
1.85039	11697.397
1.85053	11693.375
1.85067	11689.202
1.85081	11683.968
1.85096	11675.9
1.8511	11664.029
1.85124	11648.419
1.85139	11635.373
1.85153	11623.184
1.85167	11612.54
1.85182	11602.647
1.851961	11593.915
1.8521	11582.552
1.85225	11572.743
1.852391	11565.594
1.85253	11559.384
1.85268	11554.136
1.85282	11549.661
1.852965	11545.421
1.85311	11541.729
1.85325	11537.134
1.8534	11533.618
1.85354	11529.795
1.85368	11525.584
1.85383	11517.831
1.85397	11507.396
1.85411	11491.8
1.85426	11477.722
1.8544	11464.438
1.85455	11452.117
1.854689	11441.362
1.85483	11431.772
1.85498	11423.169
1.85512	11413.373
1.85526	11403.134
1.85541	11392.659
1.85555	11383.661
1.8557	11370.648
1.85584	11356.328
1.85598	11340.719
1.85613	11324.698
1.85627	11307.873
1.85642	11289.872
1.85656	11271.53
1.8567	11253.498
1.85685	11237.894
1.856993	11225.483
1.85714	11205.622
1.85728	11193.118
1.85743	11181.327
1.85757	11167.265
1.85771	11160.405
1.85786	11150.773
1.858	11136.143
1.85815	11120.455
1.85829	11105.786
1.858436	11089.354
1.85858	11070.347
1.85872	11050.813
1.85887	11030.151
1.85901	11003.541
1.85916	10975.186
1.8593	10948.829
1.85945	10923.735
1.85959	10901.905
1.85974	10882.667
1.85988	10857.938
1.860026	10832.079
1.86017	10808.805
1.86032	10785.739
1.86046	10763.631
1.860605	10741.321
1.86075	10718.183
1.86089	10691.775
1.86104	10666.937
1.86118	10643.854
1.86133	10620.441
1.86147	10595.729
1.86162	10569.781
1.86176	10543.386
1.86191	10513.392
1.862054	10488.924
1.8622	10466.551
1.86234	10443.767
1.86249	10420.91
1.86263	10397.551
1.86278	10373.95
1.86292	10349.642
1.86307	10325.186
1.86322	10299.987
1.86336	10274.661
1.86351	10248.753
1.86365	10222.483
1.8638	10195.902
1.86394	10169.308
1.86409	10142.127
1.86423	10114.703
1.86438	10087.675
1.86452	10061.494
1.86467	10062.029
1.86481	10038.402
1.86496	10015.173
1.8651	9991.64
1.86525	9968.38
1.865396	9945.09
1.86554	9921.25
1.86569	9894.05
1.86583	9866.2
1.86598	9840.22
1.86612	9814.68
1.86627	9790.64
1.86642	9761.39
1.86656	9730.77
1.86671	9699.27
1.866853	9668.97
1.867	9640.5
1.86714	9614.66
1.86729	9589.2
1.86744	9564.499
1.86758	9540.18
1.86773	9517.21
1.86787	9495.5
1.86802	9473.68
1.86817	9449.7
1.86831	9423.71
1.86846	9397.86
1.8686	9365.43
1.86875	9337.54
1.8689	9310.73
1.86904	9287.31
1.869189	9261.74
1.86934	9231.91
1.86948	9201.48
1.86963	9170.99
1.86977	9142.04
1.86992	9111.96
1.87007	9077.47
1.870213	9044.83
1.87036	9017.04
1.87051	8992.44
1.87065	8969.18
1.8708	8945.67
1.87095	8920.24
1.87109	8892.93
1.87124	8867.97
1.87138	8843.51
1.87153	8821.27
1.87168	8799.52
1.87182	8777.459
1.87197	8753.98
1.87212	8728.58
1.87226	8703.06
1.87241	8674.1
1.87256	8640.81
1.872705	8605.251
1.872852	8567.14
1.873	8527.34
1.87315	8487.415
1.87329	8447.53
1.87344	8409.76
1.87359	8373.09
1.87373	8336.08
1.87388	8299.98
1.87403	8268.22
1.87417	8237.83
1.87432	8207.62
1.87447	8174.61
1.87462	8145.24
1.87476	8117.56
1.87491	8090.42
1.87506	8062.43
1.8752	8031.54
1.87535	7997.53
1.8755	7960.89
1.87565	7918.16
1.87579	7873.95
1.87594	7830.67
1.87609	7787.21
1.876235	7744.14
1.87638	7701.35
1.87653	7659.35
1.87668	7618.83
1.87682	7580.84
1.87697	7548.17
1.87712	7517.209
1.87727	7492.79
1.87741	7459.02
1.87756	7424.82
1.87771	7391.45
1.87786	7357.98
1.87801	7324.6
1.87815	7291.42
1.8783	7256.74
1.87845	7219.1
1.8786	7175.48
1.87874	7133.208
1.87889	7091.57
1.87904	7052.27
1.87919	7006.53
1.87934	6964.26
1.87948	6923.84
1.87963	6886.43
1.87978	6854.25
1.87993	6822.01
1.88008	6786.14
1.88022	6748.8
1.88037	6710.94
1.88052	6673.3
1.88067	6632.563
1.88082	6589.87
1.88096	6546.23
1.881112	6503.19
1.88126	6460.604
1.88141	6417.27
1.88156	6374.42
1.8817	6333.48
1.88185	6293.5
1.882	6254.39
1.88215	6217.03
1.8823	6183.34
1.88245	6152.4
1.8826	6122.89
1.88274	6094.52
1.882892	6064.77
1.88304	6035.58
1.88319	6007.23
1.88334	5980.23
1.88349	5953.59
1.88363	5922.48
1.88378	5890.25
1.88393	5856.81
1.88408	5822.59
1.88423	5787.37
1.88438	5749.03
1.88453	5710.063
1.88468	5671.09
1.88482	5632.61
1.88497	5594.52
1.88512	5556.68
1.88527	5519.09
1.88542	5482.01
1.88557	5445.12
1.88572	5408.81
1.88587	5372.3
1.88602	5336.83
1.88616	5302.5
1.88631	5271.08
1.88646	5241.43
1.88661	5213.16
1.88676	5186.43
1.88691	5161.26
1.88706	5138.29
1.88721	5116.36
1.88736	5094.68
1.88751	5070.1
1.88766	5046.687
1.88781	5024.25
1.887955	5002.64
1.8881	4980.7
1.88825	4957.79
1.8884	4934.03
1.88855	4909.85
1.8887	4885.31
1.88885	4860.48
1.889001	4836.14
1.88915	4813.02
1.8893	4788.83
1.88945	4762.72
1.8896	4733.85
1.88975	4702.54
1.8899	4670.58
1.89005	4640.39
1.8902	4610.37
1.89035	4581.45
1.8905	4553.709
1.89065	4529.37
1.8908	4504.59
1.89095	4479.07
1.8911	4454.88
1.89125	4432.09
1.8914	4410.11
1.89155	4390.92
1.8917	4372.19
1.89185	4352.86
1.892	4332.18
1.89215	4311.43
1.8923	4289.01
1.89245	4265.31
1.8926	4240.64
1.89275	4215.78
1.8929	4192.53
1.89305	4169.9
1.8932	4148.94
1.89335	4130.08
1.8935	4111.59
1.89365	4093.49
1.8938	4074.65
1.89395	4056.43
1.8941	4038.93
1.89425	4021.71
1.8944	4005.783
1.89455	3989.54
1.8947	3973.1
1.894851	3955.38
1.895	3935.13
1.895152	3914.99
1.8953	3894.33
1.89545	3873.31
1.8956	3852.73
1.89575	3832.53
1.895905	3813.009
1.89606	3793.5
1.89621	3768.52
1.89636	3743.51
1.89651	3720.29
1.89666	3698.2
1.89681	3676.353
1.89696	3656.6
1.89711	3639.04
1.897262	3621.67
1.89741	3601.76
1.89756	3578.78
1.89771	3555.79
1.89787	3533.66
1.89802	3513.51
1.89817	3493.75
1.89832	3474.31
1.89847	3454.91
1.898621	3435.23
1.89877	3415.52
1.89892	3395.45
1.89907	3375.46
1.89923	3355.98
1.899377	3337.11
1.89953	3322.17
1.89968	3306.865
1.89983	3290.1
1.89998	3273.09
1.90013	3255.59
1.900285	3237.53
1.90044	3217.646
1.90059	3197.24
1.90074	3177.08
1.90089	3159.51
1.90104	3143.7
1.90119	3128.67
1.90135	3114.07
1.9015	3099.76
1.90165	3085.82
1.9018	3070.45
1.90195	3054.79
1.9021	3044.16
1.90226	3033.9
1.90241	3022.24
1.90256	3009.38
1.90271	2995.37
1.90286	2980.23
1.90301	2964.03
1.90317	2946.88
1.90332	2928.65
1.90347	2909.5
1.903622	2889.49
1.90377	2869.12
1.903926	2848.83
1.904078	2829.88
1.90423	2811.45
1.90438	2794.27
1.90453	2779.99
1.90469	2765.11
1.90484	2748.76
1.90499	2734.35
1.905143	2720.29
1.9053	2705.97
1.90545	2691.41
1.9056	2675.98
1.90575	2660.33
1.9059	2644.3
1.90606	2627.9
1.90621	2610.97
1.90636	2593.4
1.90651	2575.74
1.90667	2558.72
1.90682	2543.92
1.90697	2529.7
1.907124	2516.25
1.90728	2503.72
1.90743	2491.97
1.90758	2480.67
1.90773	2469.04
1.90789	2460.01
1.90804	2451.02
1.90819	2441.93
1.90835	2432.1
1.9085	2419.66
1.908651	2406.84
1.9088	2392.87
1.90896	2377.7
1.90911	2361.55
1.90926	2344.52
1.90942	2326.68
1.90957	2308.21
1.90972	2289.73
1.90987	2270.87
1.91003	2253.29
1.91018	2238.01
1.91033	2225.57
1.91049	2214.53
1.91064	2205.07
1.91079	2197.53
1.910946	2190.67
1.9111	2182.09
1.91125	2171.75
1.91141	2160.937
1.911559	2149.37
1.91171	2139.095
1.91187	2128.97
1.912019	2118.35
1.91217	2106.62
1.91233	2093.13
1.91248	2079.18
1.91263	2064
1.91279	2049.25
1.91294	2035.61
1.91309	2023.43
1.913247	2011.78
1.9134	2000.69
1.91355	1989.69
1.91371	1979.41
1.91386	1968.66
1.91402	1958.29
1.91417	1948.05
1.91432	1938.33
1.91448	1929.09
1.91463	1921.64
1.91478	1915.9
1.91494	1910.36
1.915092	1904.65
1.91525	1897.92
1.9154	1892
1.91555	1887.86
1.91571	1877.26