File: bartels lab/3642 MoS2 on 1012 WG/Raman_5_21_2015_Dominic/C3_R2/3642 8432x 3254y Raman 1800 T2 D1 100x.txt
650.268	54.5772
649.786	54.3159
649.306	54.08078
648.823	53.9112
648.343	53.73856
647.863	53.6204
647.38	53.506
646.9	53.4366
646.417	53.3775
645.937	53.3546
645.4541	53.3475
644.974	53.3691
644.491	53.4085
644.01	53.47332
643.528	53.5539
643.047	53.6616
642.564	53.7798
642.084	53.9063
641.601	54.0079
641.12	54.18848
640.637	54.2902
640.156	54.6031
639.674	54.9494
639.193	55.2803
638.71	55.6302
638.227	55.9777
637.746	56.3357
637.263	56.6752
636.782	57.03252
636.299	57.35268
635.818	57.6969
635.335	58.0881
634.852	58.4321
634.371	58.59679
633.887	58.7232
633.406	58.5013
632.9231	58.431
632.44	58.31216
631.959	58.2074
631.475	58.0477
630.992	57.9047
630.511	57.7414
630.027	57.6133
629.544	57.4626
629.0625	57.3402
628.579	57.215
628.096	57.1063
627.614	56.9299
627.131	56.992
626.647	57.087
626.163	57.1639
625.682	57.2247
625.198	57.32473
624.7146	57.41235
624.233	57.5288
623.749	57.6557
623.2655	57.7628
622.782	57.9879
622.3	58.0776
621.816	58.1758
621.332	58.2429
620.849	58.3229
620.367	58.3817
619.883	58.4472
619.3988	58.4986
618.915	58.5449
618.431	58.564
617.949	58.5754
617.465	58.4714
616.981	58.4395
616.4967	58.1579
616.013	58.14423
615.528	58.0947
615.046	58.07159
614.562	58.0406
614.078	58.0079
613.594	57.98798
613.109	57.9429
612.625	57.9294
612.141	57.8664
611.656	57.9707
611.174	57.9327
610.69	57.8423
610.205	57.8601
609.721	57.6706
609.236	57.4926
608.752	57.2784
608.267	57.077
607.783	56.8453
607.298	56.6137
606.814	56.2625
606.329	55.9064
605.844	55.6266
605.36	55.3508
604.875	55.0768
604.39	55.0465
603.9054	54.9983
603.421	55.3793
602.936	55.65477
602.451	55.8161
601.966	56.0088
601.4812	56.1508
600.996	56.2818
600.511	56.3677
600.026	56.4173
599.541	56.4053
599.0564	55.9241
598.571	55.5163
598.0863	55.0423
597.6012	54.4764
597.116	53.9436
596.631	53.432
596.146	53.0697
595.661	53.6842
595.175	54.1981
594.69	54.8918
594.205	55.4721
593.717	56.0383
593.232	56.2872
592.747	56.0976
592.261	56.0032
591.776	55.913
591.291	55.8378
590.805	55.7361
590.32	55.56953
589.832	55.3544
589.347	55.0937
588.861	54.8081
588.375	54.5187
587.89	54.2572
587.404	54.0854
586.9165	54.03931
586.431	54.1275
585.945	54.2029
585.459	54.262
584.974	54.3101
584.486	54.3425
584	54.3582
583.5141	54.2069
583.0282	53.9228
582.54	53.9343
582.054	54.2516
581.568	54.8618
581.082	55.5798
580.594	56.2123
580.1084	56.7284
579.622	57.21571
579.136	57.3892
578.648	57.2187
578.162	56.7343
577.676	56.0213
577.188	55.2255
576.701	54.4851
576.215	53.7968
575.727	53.173
575.2406	52.6295
574.754	52.18
574.266	51.8513
573.7796	51.7391
573.293	52.17083
572.805	52.5347
572.3183	52.7471
571.832	52.9277
571.343	53.1001
570.857	53.2576
570.368	53.45673
569.882	53.5943
569.395	53.6045
568.906	53.4088
568.42	53.1183
567.931	52.736
567.444	52.2684
566.958	51.6931
566.469	51.2172
565.982	51.3195
565.493	51.3647
565.006	51.5271
564.517	52.5035
564.031	53.663
563.542	54.8063
563.055	55.7719
562.568	56.5355
562.079	57.1193
561.592	57.51263
561.103	57.7259
560.6156	57.748
560.126	57.5921
559.639	57.25618
559.15	56.7641
558.661	55.7148
558.174	55.0062
557.685	54.6364
557.197	54.60165
556.708	54.8875
556.221	55.6268
555.731	56.35117
555.244	57.1601
554.755	57.9027
554.265	58.5361
553.778	59.0455
553.288	59.3918
552.801	59.5764
552.311	58.67482
551.822	58.9861
551.334	58.9208
550.844	59.8414
550.357	59.8489
549.867	59.8302
549.377	59.6417
548.89	59.1839
548.4	59.7485
547.91	60.2963
547.422	60.8493
546.933	61.3853
546.443	61.8795
545.955	62.3684
545.465	62.8287
544.975	63.2918
544.487	63.7708
543.997	64.2972
543.507	64.928
543.019	65.5319
542.529	65.12616
542.039	65.4574
541.549	65.8507
541.061	66.21524
540.5705	66.5477
540.08	66.9168
539.59	67.4618
539.102	68.2873
538.612	69.3301
538.121	70.623
537.631	72.0336
537.141	73.4645
536.652	74.6418
536.1618	75.7705
535.671	76.948
535.181	78.2012
534.69	79.5491
534.202	80.9823
533.711	82.4893
533.221	84.0449
532.73	85.6883
532.24	88.4606
531.751	90.5591
531.26	92.5589
530.77	94.9832
530.279	97.8704
529.788	101.462
529.297	105.928
528.807	111.292
528.316	117.553
527.8269	124.6239
527.336	134.431
526.845	147.69
526.354	161.862
525.863	179.328
525.372	225.766
524.881	250.879
524.3902	277.807
523.899	331.943
523.408	421.893
522.917	586.619
522.426	808.521
521.935	1028
521.443	1454
520.952	1814
520.461	2004
519.9696	1916
519.478	1607.73
518.987	1162.05
518.496	828.029
518.004	592.336
517.513	462.989
517.021	362.029
516.53	294.257
516.038	253.721
515.547	227.707
515.055	169
514.564	174.885
514.0722	143.576
513.581	134.5266
513.089	128.782
512.597	122.53
512.106	114.958
511.6138	105.821
511.122	98.407
510.63	92.731
510.138	88.0627
509.645	87.1765
509.153	88.1075
508.661	84.5389
508.169	83.0773
507.677	81.5923
507.185	80.0468
506.693	78.4642
506.201	76.9392
505.707	75.6466
505.215	74.67379
504.723	73.9068
504.231	73.0619
503.738	71.32312
503.246	70.01944
502.752	68.93679
502.2598	67.7853
501.768	66.704
501.275	65.7645
500.783	65.0191
500.289	64.6555
499.796	64.47776
499.3038	64.0431
498.811	63.837
498.317	63.7197
497.824	63.6954
497.332	63.6957
496.839	63.7208
496.345	63.763
495.852	63.7322
495.36	63.7489
494.867	64.6501
494.372	64.2466
493.88	64.0421
493.3869	63.5604
492.892	62.6583
492.399	61.4234
491.907	59.48962
491.412	58.5406
490.919	56.8012
490.426	56.2857
489.931	56.7729
489.438	57.6998
488.945	58.5486
488.45	61.0359
487.957	61.9435
487.464	63.3569
486.969	63.9587
486.476	63.6712
485.983	62.52895
485.488	61.66095
484.994	61.0604
484.499	60.72699
484.006	59.6538
483.513	59.28857
483.017	59.0434
482.524	58.931
482.029	58.9656
481.535	59.9729
481.04	60.2832
480.547	60.467
480.053	60.70023
479.558	60.96957
479.064	61.5033
478.569	61.704
478.075	62.0349
477.58	61.4605
477.086	60.7599
476.59	59.9589
476.097	58.93853
475.601	58.2562
475.107	57.494
474.611	57.3006
474.118	57.1691
473.622	57.1135
473.128	57.1083
472.6322	57.2091
472.138	57.3297
471.6424	57.3653
471.146	57.3659
470.653	57.3397
470.156	57.2939
469.663	57.0726
469.166	56.9068
468.672	56.6923
468.1763	56.4938
467.68	56.2934
467.186	56.09549
466.69	55.9863
466.196	55.8479
465.6994	55.6566
465.203	55.4315
464.709	55.2468
464.213	55.03764
463.716	54.8764
463.222	54.69923
462.7254	54.5677
462.231	54.4446
461.735	54.3466
461.238	54.2769
460.744	54.219
460.247	54.1822
459.75	54.18129
459.254	54.2822
458.759	54.366
458.263	54.3811
457.766	54.7266
457.2713	55.13364
456.775	55.6385
456.2778	56.1959
455.783	56.6524
455.286	57.18409
454.7894	57.6793
454.293	58.3521
453.7977	58.7031
453.301	59.0154
452.8038	59.306
452.307	59.2758
451.81	59.3589
451.315	59.3701
450.818	59.4058
450.321	59.4531
449.824	59.4964
449.329	59.526
448.831	59.5755
448.334	59.5963
447.837	59.6465
447.34	59.6646
446.842	59.7213
446.347	59.7409
445.85	59.8092
445.352	59.91375
444.8551	60.0226
444.3577	60.08791
443.86	60.132
443.363	60.1779
442.867	60.2166
442.37	60.22102
441.872	60.3905
441.375	60.5425
440.877	60.72472
440.379	60.8902
439.882	61.0562
439.384	61.2114
438.886	61.3374
438.389	61.4621
437.891	61.5254
437.395	61.5899
436.897	61.5631
436.3996	60.8845
435.902	60.4471
435.404	59.9672
434.906	59.5537
434.408	59.1253
433.91	58.8299
433.412	58.6208
432.914	59.1274
432.416	59.45055
431.918	59.8321
431.42	60.2436
430.922	60.6525
430.4234	61.0818
429.9252	61.2841
429.427	61.4657
428.929	61.4471
428.43	61.3233
427.932	61.059
427.434	60.85022
426.935	60.5733
426.435	60.1501
425.937	59.9007
425.4382	59.69857
424.94	59.5083
424.441	59.6109
423.943	59.763
423.444	59.9457
422.946	60.16568
422.447	60.3925
421.948	60.6607
421.45	60.8937
420.949	61.1043
420.45	61.315
419.952	61.4797
419.453	61.5861
418.954	61.6253
418.4552	61.5783
417.956	61.4554
417.455	61.2673
416.957	60.9891
416.458	60.6471
415.959	60.2597
415.46	59.89
414.961	59.5156
414.46	59.1407
413.961	58.7771
413.461	58.4355
412.962	58.3017
412.461	58.4127
411.962	58.3911
411.463	58.9255
410.964	59.1377
410.464	60.06641
409.963	61.1805
409.464	62.5809
408.964	64.1462
408.465	65.5847
407.964	67.0185
407.464	68.3702
406.965	69.8156
406.463	70.6399
405.964	71.015
405.464	70.9469
404.9646	70.4395
404.463	69.4448
403.963	67.6386
403.464	66.2461
402.962	64.91906
402.462	63.6499
401.963	62.3666
401.461	60.9873
400.961	59.5594
400.461	58.75729
399.959	58.352
399.46	58.3029
398.958	58.4463
398.4577	58.7716
397.958	58.6149
397.456	58.651
396.956	58.68689
396.454	58.6521
395.954	58.7454
395.454	58.9003
394.951	58.9288
394.451	58.753
393.9491	58.5278
393.449	58.3374
392.949	58.239
392.446	58.225
391.946	58.4159
391.444	58.6731
390.944	58.9199
390.441	59.1412
389.941	59.3827
389.438	59.6891
388.938	59.5546
388.435	59.8451
387.935	60.1634
387.432	60.5462
386.932	60.6914
386.429	60.9379
385.929	61.2615
385.4259	61.6833
384.925	62.1988
384.423	62.6996
383.922	63.0192
383.419	62.7641
382.918	62.1535
382.4155	60.9156
381.915	59.4152
381.4118	58.2127
380.909	56.7656
380.408	56.957
379.905	57.6348
379.404	58.7353
378.901	59.3982
378.398	61.52647
377.897	61.7176
377.394	61.2104
376.893	60.7224
376.39	60.1872
375.886	59.6714
375.385	59.1886
374.882	58.7283
374.379	58.2959
373.877	57.9058
373.374	57.5378
372.871	57.2159
372.369	56.9158
371.866	56.6573
371.363	56.4241
370.861	56.2296
370.3577	56.0612
369.854	55.9293
369.353	55.8215
368.849	55.7504
368.345	55.6982
367.844	55.6862
367.34	55.6874
366.837	55.7335
366.333	55.73621
365.831	55.75655
365.327	55.9518
364.824	56.1513
364.32	56.3877
363.818	56.6291
363.314	56.8961
362.81	57.172
362.306	57.4548
361.804	57.77634
361.3	58.054
360.796	58.3612
360.292	58.6179
359.788	59.0591
359.286	59.1736
358.782	59.2826
358.278	59.3105
357.774	58.9837
357.269	58.9507
356.765	58.84597
356.263	58.7681
355.759	58.7011
355.254	58.6434
354.75	58.5862
354.246	58.5401
353.741	58.4806
353.237	58.4457
352.734	58.3881
352.23	58.543
351.7254	58.5878
351.221	58.6886
350.716	58.7453
350.2117	58.8
349.707	58.8514
349.202	58.8928
348.698	58.9345
348.193	58.9583
347.688	58.9869
347.186	58.9923
346.681	59.00523
346.176	58.9906
345.671	58.9856
345.166	58.9498
344.661	58.9254
344.1564	58.8662
343.651	58.8208
343.146	58.7369
342.641	58.6697
342.136	58.5613
341.631	58.4732
341.126	58.34148
340.621	58.23349
340.116	58.0805
339.611	57.9515
339.106	57.7333
338.6	57.5625
338.095	57.3821
337.59	57.2074
337.084	57.0138
336.577	56.8878
336.072	56.5436
335.566	56.2071
335.061	55.8582
334.555	55.5112
334.05	55.1655
333.544	54.8262
333.039	54.5763
332.5332	54.3013
332.028	54.1135
331.522	54.709
331.014	55.1906
330.509	55.6964
330.003	56.2343
329.497	56.7757
328.991	57.3167
328.486	57.8779
327.98	58.3928
327.474	58.9145
326.966	59.2562
326.46	59.0916
325.9541	58.812
325.448	58.59
324.942	58.3167
324.434	58.0174
323.928	57.7459
323.422	57.5223
322.916	57.29224
322.41	57.1588
321.902	57.3532
321.395	57.5209
320.889	57.7452
320.383	57.9578
319.877	58.2927
319.368	58.6726
318.862	59.1059
318.356	59.5505
317.849	60.1046
317.341	60.6929
316.834	61.2807
316.328	61.8639
315.819	62.4527
315.313	62.9885
314.806	63.5327
314.3	63.984
313.791	64.1944
313.284	64.1171
312.778	64.1
312.269	64.0127
311.762	63.8288
311.255	63.486
310.747	63.0869
310.24	62.55714
309.733	62.0327
309.224	61.5398
308.717	61.1609
308.2103	61.2801
307.701	61.53
307.194	62.3225
306.685	63.2126
306.178	64.3477
305.6712	65.6732
305.162	66.91436
304.655	68.0501
304.146	68.9937
303.639	69.8465
303.131	70.5578
302.6221	70.9799
302.115	71.0265
301.6055	70.3929
301.098	70.1514
300.589	69.6853
300.081	69.158
299.5741	67.8588
299.065	66.5515
298.557	65.272
298.048	64.0478
297.54	62.9046
297.031	61.867
296.523	61.0198
296.013	60.5793
295.506	60.3072
294.996	60.2284
294.488	60.265
293.979	60.324
293.471	60.4253
292.961	60.5435
292.453	60.6638
291.943	60.8043
291.436	60.7598
290.926	60.7642
290.416	60.7606
289.908	60.7582
289.398	60.7124
288.89	60.6375
288.38	60.5394
287.872	60.4865
287.362	60.1966
286.851	59.8954
286.343	59.5574
285.833	59.2094
285.325	58.8457
284.815	58.4754
284.304	58.1038
283.796	57.7382
283.286	57.3963
282.777	57.0671
282.267	56.7922
281.7565	56.5385
281.248	56.6478
280.738	56.5962
280.227	56.7518
279.719	56.93898
279.208	57.1896
278.697	57.4743
278.189	57.7979
277.678	58.127
277.168	58.5801
276.657	58.7532
276.148	58.9278
275.637	59.0639
275.127	59.0258
274.618	58.8203
274.1069	58.5706
273.596	58.4234
273.085	58.1717
272.576	57.9523
272.065	57.7273
271.554	57.5122
271.043	57.479
270.534	57.3143
270.023	57.2214
269.512	57.1216
269.001	57.01239
268.492	56.8855
267.981	56.7412
267.469	56.5822
266.958	56.401
266.447	56.2062
265.938	55.9907
265.426	55.7504
264.915	55.4537
264.403	54.5659
263.892	54.3663
263.381	54.3355
262.871	54.6273
262.36	54.9784
261.848	55.37751
261.337	55.801
260.825	56.0465
260.313	56.381
259.802	56.6379
259.292	56.7526
258.78	56.6128
258.269	56.2404
257.757	55.6798
257.245	54.7015
256.733	54.2367
256.221	53.8086
255.709	53.4176
255.198	53.0679
254.686	52.7573
254.174	52.4843
253.662	52.2512
253.1517	52.0428
252.64	51.878
252.128	51.8336
251.615	52.0872
251.103	52.3489
250.591	52.64558
250.079	52.9864
249.567	53.3164
249.054	53.459
248.542	53.2816
248.03	53.0218
247.518	52.9842
247.0052	53.1141
246.493	53.1869
245.98	53.1921
245.468	53.1647
244.955	53.1401
244.443	53.14061
243.93	53.1752
243.418	53.2723
242.905	53.2545
242.391	53.3375
241.8779	53.6125
241.365	53.9217
240.853	54.2276
240.34	54.5214
239.827	54.7806
239.314	55.011
238.801	55.2107
238.289	55.2901
237.7757	55.29924
237.2628	55.3111
236.748	55.4667
236.2348	55.7171
235.722	56.0448
235.2088	56.3096
234.696	56.338
234.183	56.1123
233.67	55.8002
233.154	55.52882
232.641	55.3094
232.128	55.1437
231.615	55.0352
231.102	54.959
230.588	54.9081
230.073	54.7976
229.56	54.5113
229.046	54.27301
228.533	54.0486
228.019	53.8179
227.504	53.6167
226.99	53.8305
226.477	54.1039
225.963	54.1337
225.45	54.0577
224.9341	53.8511
224.42	53.5358
223.907	53.1392
223.393	52.6759
222.877	52.5677
222.364	52.53421
221.85	52.4487
221.334	52.2809
220.82	52.0444
220.306	51.7277
219.792	51.3293
219.276	50.861
218.763	50.33683
218.2486	49.8172
217.7325	49.3667
217.218	48.92894
216.704	48.6908
216.188	48.6099
215.674	48.497
215.16	48.4009
214.6438	48.1039
214.13	47.9239
213.6154	48.0717
213.099	48.3756
212.585	48.8489
212.07	49.213
211.554	49.465
211.0397	49.5873
210.523	49.5721
210.0088	49.41861
209.494	48.9926
208.978	48.4854
208.463	48.1564
207.947	47.8701
207.4321	47.6959
206.918	47.6069
206.4008	47.7625
205.886	47.5903
205.369	47.39016
204.855	47.1226
204.338	47.6275
203.8231	47.4416
203.306	47.1619
202.791	46.8509
202.277	46.5186
201.7596	46.1897
201.245	45.8235
200.728	45.2725
200.213	44.8422
199.696	45.2806
199.1806	45.8118
198.663	46.4577
198.148	47.0963
197.631	47.6119
197.114	48.2379
196.5988	48.24741
196.0815	48.1774
195.5663	48.0094
195.049	47.8137
194.534	47.5925
194.016	47.3745
193.501	47.1446
192.983	46.9315
192.468	46.6857
191.951	46.3175
191.433	46.3839
190.918	46.4743
190.4	46.6098
189.884	46.7683
189.367	46.9392
188.849	47.1208
188.333	47.3068
187.816	47.4925
187.3	47.6865
186.782	47.877
186.264	48.0509
185.749	48.203
185.231	48.3266
184.7128	48.41732
184.197	48.4784
183.679	48.51107
183.161	48.5253
182.645	48.4745
182.127	48.3922
181.609	48.3092
181.093	48.2133
180.575	48.1182
180.057	48.007
179.54	47.90847
179.022	47.7892
178.504	47.68668
177.986	47.5639
177.469	47.4599
176.951	47.3404
176.433	47.237
175.914	47.1311
175.3979	47.0296
174.879	46.9422
174.361	46.8407
173.842	46.7744
173.326	46.6673
172.807	46.6226
172.289	46.52877
171.77	46.42318
171.254	46.4008
170.735	46.1539
170.216	45.9374
169.697	45.6794
169.179	45.4532
168.662	45.20137
168.143	44.9738
167.624	44.7471
167.105	44.5353
166.586	44.3295
166.067	44.1684
165.55	44.0485
165.031	43.9531
164.512	43.9549
163.9933	44.4072
163.4742	44.7823
162.955	45.25
162.4359	45.7382
161.9167	46.2391
161.3996	46.7439
160.88	47.2148
160.361	47.6976
159.842	48.161
159.3224	48.574
158.803	48.93227
158.284	48.9509
157.764	49.0339
157.245	49.0309
156.725	48.9469
156.206	48.783
155.686	48.579
155.169	48.333
154.649	47.9084
154.13	47.4568
153.61	46.9827
153.09	46.50827
152.57	46.0392
152.051	45.6013
151.531	45.1623
151.011	44.7803
150.491	44.6572
149.971	44.54311
149.452	44.6696
148.932	44.767
148.412	45.0851
147.892	45.46199
147.372	46.1087
146.8517	46.7754
146.332	47.47657
145.812	48.1594
145.289	48.8301
144.769	49.4877
144.249	50.0589
143.729	50.2648
143.209	50.4246
142.688	50.43961
142.168	50.1717
141.648	49.91
141.127	49.4113
140.607	48.77388
140.086	48.0202
139.566	47.1699
139.046	46.2339
138.523	45.2416
138.002	46.0458