File: bartels lab/3642 MoS2 on 1012 WG/Raman_5_21_2015_Dominic/C3_R2/3642 8432x 3303y Raman 1800 T2 D1 100x.txt
650.268	66.0774
649.786	66.822
649.306	67.225
648.823	66.87
648.343	66.5254
647.863	66.1407
647.38	65.75808
646.9	65.3953
646.417	65.042
645.937	64.6916
645.4541	64.3533
644.974	64.0361
644.491	63.7467
644.01	63.5307
643.528	63.3693
643.047	63.1586
642.564	63.109
642.084	63.1354
641.601	63.2615
641.12	63.3973
640.637	63.5526
640.156	63.7454
639.674	63.9413
639.193	64.168
638.71	64.3903
638.227	64.63
637.746	64.8648
637.263	65.0922
636.782	65.3286
636.299	65.6176
635.818	65.8391
635.335	65.9654
634.852	65.9729
634.371	65.9616
633.887	65.92691
633.406	65.8723
632.9231	65.7962
632.44	65.7008
631.959	65.6086
631.475	65.5098
630.992	65.4061
630.511	65.2909
630.027	65.1843
629.544	65.0523
629.0625	64.812
628.579	64.7502
628.096	64.7979
627.614	64.8075
627.131	64.85672
626.647	64.8952
626.163	64.9749
625.682	65.0368
625.198	65.1344
624.7146	65.2083
624.233	65.3062
623.749	65.3834
623.2655	65.4738
622.782	65.5564
622.3	65.6284
621.816	65.6941
621.332	65.7539
620.849	65.8117
620.367	65.8571
619.883	65.9063
619.3988	65.938
618.915	65.9771
618.431	65.9916
617.949	66.0191
617.465	66.0165
616.981	66.0319
616.4967	66.0108
616.013	66.0137
615.528	65.9227
615.046	65.8765
614.562	65.75235
614.078	65.6987
613.594	65.6226
613.109	65.563
612.625	65.4759
612.141	65.4126
611.656	65.3214
611.174	65.2553
610.69	65.1648
610.205	65.0915
609.721	65.0051
609.236	64.9154
608.752	64.8376
608.267	64.7262
607.783	64.6301
607.298	64.4847
606.814	64.3508
606.329	64.1608
605.844	63.96637
605.36	63.73027
604.875	63.4827
604.39	63.2105
603.9054	62.9236
603.421	62.6346
602.936	62.3418
602.451	62.0024
601.966	61.8999
601.4812	64.2082
600.996	65.4982
600.511	66.1186
600.026	66.1888
599.541	65.6288
599.0564	65.1403
598.571	64.845
598.0863	64.6195
597.6012	64.4413
597.116	64.3573
596.631	64.3713
596.146	65.1014
595.661	65.042
595.175	64.9128
594.69	64.8827
594.205	64.8464
593.717	64.7544
593.232	64.5416
592.747	63.7127
592.261	63.3911
591.776	63.3919
591.291	63.4618
590.805	63.5433
590.32	63.65258
589.832	63.8537
589.347	64.0451
588.861	64.1474
588.375	64.221
587.89	63.8134
587.404	63.4009
586.9165	62.99752
586.431	62.5996
585.945	62.2148
585.459	61.9829
584.974	61.9197
584.486	61.76643
584	61.7825
583.5141	62.0261
583.0282	62.2936
582.54	62.5896
582.054	62.9024
581.568	63.2034
581.082	63.4985
580.594	63.7616
580.1084	63.9855
579.622	64.1592
579.136	64.1458
578.648	64.1142
578.162	64.078
577.676	63.9628
577.188	63.7845
576.701	63.5808
576.215	63.3377
575.727	62.8964
575.2406	62.4228
574.754	61.9508
574.266	61.484
573.7796	61.0549
573.293	60.6593
572.805	60.3609
572.3183	60.0949
571.832	60.5964
571.343	60.8092
570.857	61.3772
570.368	62.0151
569.882	62.7049
569.395	63.392
568.906	64.0245
568.42	64.5462
567.931	64.29158
567.444	64.0782
566.958	63.8128
566.469	63.5246
565.982	63.3312
565.493	63.0974
565.006	62.704
564.517	62.4697
564.031	62.421
563.542	62.7507
563.055	63.2565
562.568	64.1432
562.079	64.9752
561.592	65.6244
561.103	66.0929
560.6156	66.3349
560.126	66.3568
559.639	66.1923
559.15	65.8423
558.661	65.3335
558.174	64.6901
557.685	63.9699
557.197	63.1431
556.708	62.23645
556.221	61.4063
555.731	60.7435
555.244	60.4424
554.755	60.3718
554.265	60.8663
553.778	61.5121
553.288	62.3477
552.801	63.371
552.311	64.5494
551.822	66.0409
551.334	67.39489
550.844	68.0412
550.357	68.44381
549.867	68.4997
549.377	68.1617
548.89	67.0241
548.4	65.8279
547.91	64.8263
547.422	64.9627
546.933	66.2041
546.443	66.4611
545.955	66.7699
545.465	67.3245
544.975	68.0169
544.487	68.97628
543.997	69.9515
543.507	70.84111
543.019	71.5722
542.529	72.1451
542.039	72.6152
541.549	72.9764
541.061	73.1632
540.5705	73.2738
540.08	73.4831
539.59	73.8096
539.102	74.259
538.612	74.8098
538.121	75.4962
537.631	76.2831
537.141	77.2135
536.652	78.2429
536.1618	79.4099
535.671	80.67083
535.181	82.0742
534.69	83.56395
534.202	85.1929
533.711	86.9228
533.221	88.7767
532.73	90.7824
532.24	92.9166
531.751	95.2327
531.26	97.694
530.77	100.227
530.279	102.871
529.788	105.777
529.297	108.897
528.807	114.6301
528.316	120.73
527.8269	128.912
527.336	138.398
526.845	150.495
526.354	166.341
525.863	185.533
525.372	217.817
524.881	250.888
524.3902	292.4769
523.899	349.085
523.408	422.163
522.917	566
522.426	727
521.935	1030
521.443	1375
520.952	1768
520.461	1913
519.9696	1883
519.478	1543
518.987	1117
518.496	864
518.004	566.601
517.513	459.453
517.021	372.625
516.53	309.196
516.038	260.156
515.547	220.193
515.055	188.759
514.564	162.717
514.0722	148.016
513.581	136.003
513.089	126.278
512.597	118.8556
512.106	113.6
511.6138	108.797
511.122	104.3592
510.63	100.312
510.138	96.617
509.645	93.2415
509.153	90.2138
508.661	87.6573
508.169	85.5408
507.677	83.7542
507.185	82.2056
506.693	80.8515
506.201	79.6952
505.707	78.7475
505.215	77.8882
504.723	76.9005
504.231	75.9886
503.738	75.1597
503.246	74.4806
502.752	73.9627
502.2598	73.7955
501.768	73.692
501.275	73.5484
500.783	73.3783
500.289	73.2861
499.796	73.22
499.3038	73.0906
498.811	72.8713
498.317	72.4374
497.824	71.8484
497.332	71.0841
496.839	70.0713
496.345	69.0468
495.852	68.2257
495.36	67.5674
494.867	67.0671
494.372	66.7498
493.88	66.6512
493.3869	66.6967
492.892	66.81826
492.399	66.8567
491.907	66.7886
491.412	66.5858
490.919	66.2947
490.426	65.8564
489.931	65.3043
489.438	64.6802
488.945	64.0377
488.45	63.4192
487.957	62.8921
487.464	62.4095
486.969	62.0299
486.476	61.897
485.983	61.7802
485.488	61.5935
484.994	61.8869
484.499	62.255
484.006	62.6569
483.513	63.1695
483.017	63.6557
482.524	64.0703
482.029	64.4263
481.535	64.7207
481.04	64.9338
480.547	65.105
480.053	65.1391
479.558	65.1648
479.064	65.1748
478.569	65.1983
478.075	65.21019
477.58	65.2309
477.086	65.2364
476.59	65.2527
476.097	65.2548
475.601	65.2675
475.107	65.2682
474.611	65.2779
474.118	65.2788
473.622	65.2858
473.128	65.2901
472.6322	65.2941
472.138	65.3034
471.6424	65.303
471.146	65.3224
470.653	65.33416
470.156	65.3338
469.663	65.3481
469.166	65.3282
468.672	65.5301
468.1763	65.4202
467.68	65.3214
467.186	65.1925
466.69	65.0642
466.196	64.926
465.6994	64.7937
465.203	64.6646
464.709	64.536
464.213	64.2358
463.716	64.1773
463.222	64.121
462.7254	64.0881
462.231	64.0687
461.735	64.0638
461.238	64.0805
460.744	64.1034
460.247	64.15152
459.75	64.4566
459.254	64.6377
458.759	64.7758
458.263	64.924
457.766	65.0749
457.2713	65.2246
456.775	65.3824
456.2778	65.5299
455.783	65.6906
455.286	65.8472
454.7894	66.0046
454.293	66.1236
453.7977	66.28476
453.301	66.37307
452.8038	66.5225
452.307	66.6618
451.81	66.8039
451.315	66.9242
450.818	67.0573
450.321	67.1905
449.824	67.3218
449.329	67.444
448.831	67.5697
448.334	67.6876
447.837	67.7939
447.34	67.9014
446.842	67.9886
446.347	68.0829
445.85	68.1683
445.352	68.2208
444.8551	68.281
444.3577	68.3335
443.86	68.3374
443.363	68.3502
442.867	68.3224
442.37	68.2975
441.872	68.2359
441.375	68.168
440.877	68.0744
440.379	67.9718
439.882	67.8509
439.384	67.7192
438.886	67.5759
438.389	67.4213
437.891	67.2619
437.395	67.0926
436.897	66.9255
436.3996	66.754
435.902	66.5906
435.404	66.4306
434.906	66.2928
434.408	66.1367
433.91	66.0167
433.412	65.90435
432.914	65.8353
432.416	65.9618
431.918	66.1611
431.42	66.4415
430.922	67.5741
430.4234	69.5555
429.9252	70.2957
429.427	70.5687
428.929	70.4125
428.43	69.8569
427.932	68.9767
427.434	67.7505
426.935	66.4718
426.435	65.4452
425.937	64.4983
425.4382	63.4711
424.94	62.7023
424.441	62.1896
423.943	62.6809
423.444	64.5735
422.946	64.9814
422.447	65.361
421.948	65.8269
421.45	66.46891
420.949	67.8945
420.45	68.8255
419.952	69.2112
419.453	69.1521
418.954	68.1638
418.4552	67.53508
417.956	67.20153
417.455	67.19754
416.957	67.6802
416.458	68.3346
415.959	68.8568
415.46	69.2593
414.961	69.5024
414.46	69.6379
413.961	69.6734
413.461	69.6871
412.962	69.668
412.461	69.6746
411.962	69.7165
411.463	69.8247
410.964	70.0267
410.464	70.2964
409.963	70.7287
409.464	71.2229
408.964	71.8268
408.465	72.4908
407.964	73.5545
407.464	75.5848
406.965	78.4336
406.463	80.567
405.964	84.1098
405.464	89.0044
404.9646	94.7134
404.463	100.499
403.963	104.218
403.464	106.926
402.962	102.038
402.462	96.8741
401.963	87.1387
401.461	83.5832
400.961	78.818
400.461	75.5653
399.959	72.7215
399.46	70.30751
398.958	68.2982
398.4577	66.6696
397.958	65.4301
397.456	64.5624
396.956	64.0585
396.454	63.9044
395.954	64.073
395.454	64.5494
394.951	65.1126
394.451	65.6624
393.9491	66.1585
393.449	66.3228
392.949	66.496
392.446	66.6563
391.946	66.7792
391.444	66.8593
390.944	66.8907
390.441	66.8648
389.941	66.7932
389.438	66.6298
388.938	66.439
388.435	66.2621
387.935	66.4287
387.432	67.8415
386.932	69.3116
386.429	70.9981
385.929	72.6549
385.4259	74.1607
384.925	75.62812
384.423	76.7046
383.922	77.3507
383.419	77.5785
382.918	77.3921
382.4155	76.73259
381.915	75.5437
381.4118	73.7711
380.909	72.0317
380.408	70.40937
379.905	68.96035
379.404	67.736
378.901	66.7069
378.398	65.93972
377.897	65.4663
377.394	65.4047
376.893	65.7335
376.39	66.0447
375.886	66.3328
375.385	66.5153
374.882	66.5703
374.379	66.5201
373.877	66.1756
373.374	65.7502
372.871	65.29351
372.369	64.8235
371.866	64.38279
371.363	63.9681
370.861	63.6928
370.3577	63.4166
369.854	63.3834
369.353	63.5507
368.849	63.9425
368.345	64.3953
367.844	64.7989
367.34	65.15387
366.837	65.4083
366.333	65.5321
365.831	64.9771
365.327	64.4866
364.824	63.8607
364.32	63.1656
363.818	62.4984
363.314	61.4032
362.81	60.5681
362.306	60.1173
361.804	59.9564
361.3	59.9798
360.796	60.4679
360.292	61.03606
359.788	61.5366
359.286	62.1733
358.782	62.4218
358.278	62.6192
357.774	62.7399
357.269	62.8111
356.765	62.8014
356.263	62.7445
355.759	62.66077
355.254	62.5556
354.75	62.4699
354.246	62.3716
353.741	62.258
353.237	62.131
352.734	62.0073
352.23	61.88345
351.7254	61.7718
351.221	61.6742
350.716	61.5913
350.2117	61.5263
349.707	61.4862
349.202	61.4655
348.698	61.4928
348.193	61.5914
347.688	61.8044
347.186	62.0586
346.681	62.5662
346.176	63.0768
345.671	63.8013
345.166	64.3835
344.661	64.9078
344.1564	65.3771
343.651	65.7477
343.146	65.5415
342.641	65.2673
342.136	64.8095
341.631	64.12661
341.126	63.2778
340.621	62.7107
340.116	62.1323
339.611	62.1962
339.106	62.1328
338.6	62.3049
338.095	62.5154
337.59	62.7629
337.084	63.0541
336.577	63.3747
336.072	63.8377
335.566	64.1128
335.061	64.36882
334.555	64.5929
334.05	64.7943
333.544	64.94503
333.039	65.0988
332.5332	65.2077
332.028	65.3809
331.522	65.4705
331.014	65.5354
330.509	65.63987
330.003	65.6152
329.497	65.6105
328.991	65.5674
328.486	65.5412
327.98	65.485
327.474	65.4446
326.966	65.3813
326.46	65.32618
325.9541	65.2616
325.448	65.1978
324.942	65.139
324.434	65.0797
323.928	65.0345
323.422	64.9929
322.916	64.9695
322.41	64.957
321.902	64.9418
321.395	64.993
320.889	65.0157
320.383	65.1162
319.877	65.18795
319.368	65.384
318.862	65.5672
318.356	65.8859
317.849	66.1093
317.341	66.39798
316.834	66.6686
316.328	66.9905
315.819	67.325
315.313	67.669
314.806	68.0117
314.3	68.3485
313.791	68.6791
313.284	68.9742
312.778	68.7217
312.269	67.3217
311.762	66.1991
311.255	65.0992
310.747	64.2136
310.24	65.1596
309.733	65.69973
309.224	66.2612
308.717	67.7418
308.2103	68.4426
307.701	68.5271
307.194	68.4441
306.685	68.5718
306.178	68.8322
305.6712	69.08046
305.162	69.4829
304.655	69.9446
304.146	70.4259
303.639	70.8776
303.131	71.3204
302.6221	71.8698
302.115	72.0665
301.6055	72.1814
301.098	72.20665
300.589	72.1648
300.081	72.03199
299.5741	71.7913
299.065	71.4995
298.557	71.1535
298.048	70.7706
297.54	70.3533
297.031	69.9547
296.523	69.5304
296.013	69.1322
295.506	68.68425
294.996	68.1624
294.488	67.5138
293.979	66.79689
293.471	66.0247
292.961	65.2275
292.453	64.4053
291.943	63.6211
291.436	62.8496
290.926	62.1124
290.416	61.4063
289.908	62.2363
289.398	62.1498
288.89	62.1308
288.38	62.18071
287.872	62.29649
287.362	62.483
286.851	62.7003
286.343	63.1592
285.833	63.6324
285.325	64.11
284.815	64.5792
284.304	65.0031
283.796	65.4722
283.286	65.8785
282.777	65.9593
282.267	65.8963
281.7565	65.78
281.248	65.6665
280.738	65.4202
280.227	65.2689
279.719	64.97113
279.208	64.681
278.697	64.3767
278.189	64.0932
277.678	63.7886
277.168	63.5135
276.657	63.2214
276.148	62.9457
275.637	62.6332
275.127	62.3565
274.618	62.0806
274.1069	61.8223
273.596	61.56567
273.085	61.3191
272.576	61.08474
272.065	60.8525
271.554	60.6439
271.043	60.4301
270.534	60.1974
270.023	60.0557
269.512	59.9001
269.001	59.6993
268.492	59.672
267.981	59.6184
267.469	59.6342
266.958	59.6259
266.447	59.6733
265.938	59.7085
265.426	59.8597
264.915	59.8813
264.403	59.9626
263.892	60.1405
263.381	60.0851
262.871	59.9972
262.36	59.896
261.848	59.8047
261.337	59.2682
260.825	58.9419
260.313	58.7243
259.802	58.4275
259.292	58.1957
258.78	57.7768
258.269	57.7526
257.757	57.7461
257.245	57.9087
256.733	58.0418
256.221	58.1573
255.709	58.3474
255.198	58.5176
254.686	58.6738
254.174	58.8468
253.662	59.0079
253.1517	59.165
252.64	59.3224
252.128	59.4555
251.615	59.603
251.103	59.7058
250.591	59.7156
250.079	59.7574
249.567	59.8307
249.054	59.8369
248.542	59.8713
248.03	59.8959
247.518	59.9191
247.0052	59.936
246.493	59.9408
245.98	59.9482
245.468	59.9327
244.955	59.9232
244.443	59.8845
243.93	59.8471
243.418	59.7832
242.905	59.7137
242.391	59.6236
241.8779	59.5216
241.365	59.4056
240.853	59.2738
240.34	59.13343
239.827	58.9772
239.314	58.8144
238.801	58.6352
238.289	58.457
237.7757	58.2686
237.2628	58.088
236.748	57.9368
236.2348	59.4254
235.722	59.9373
235.2088	60.165
234.696	60.2555
234.183	60.2686
233.67	60.1928
233.154	60.1109
232.641	60.0695
232.128	59.8118
231.615	59.6089
231.102	59.2766
230.588	59.13335
230.073	59.1113
229.56	59.0747
229.046	59.0376
228.533	58.9941
228.019	58.9301
227.504	58.8572
226.99	58.7754
226.477	58.7113
225.963	58.5044
225.45	58.23
224.9341	57.9399
224.42	57.5616
223.907	57.1584
223.393	56.7312
222.877	56.29929
222.364	55.869
221.85	55.4303
221.334	55.0016
220.82	54.5889
220.306	54.2127
219.792	53.8544
219.276	53.5338
218.763	53.242
218.2486	52.9875
217.7325	52.9344
217.218	53.0561
216.704	53.2125
216.188	53.38522
215.674	53.5941
215.16	53.8373
214.6438	54.1013
214.13	54.3803
213.6154	54.6727
213.099	54.9686
212.585	55.2157
212.07	55.209
211.554	54.77747
211.0397	54.4737
210.523	54.15633
210.0088	53.8325
209.494	53.49876
208.978	53.1629
208.463	52.8223
207.947	52.47242
207.4321	52.1318
206.918	52.08202
206.4008	52.2323
205.886	52.4386
205.369	52.6506
204.855	52.8777
204.338	53.1111
203.8231	53.347
203.306	53.5748
202.791	53.7789
202.277	53.9926
201.7596	53.7589
201.245	53.7828
200.728	53.8423
200.213	53.8984
199.696	53.9386
199.1806	53.9599
198.663	53.9312
198.148	53.869
197.631	53.7248
197.114	53.7296
196.5988	53.3499
196.0815	52.9586
195.5663	52.5082
195.049	52.0627
194.534	51.6345
194.016	51.1493
193.501	50.7568
192.983	50.5235
192.468	50.7542
191.951	50.9359
191.433	51.27562
190.918	51.5967
190.4	51.9421
189.884	52.288
189.367	52.6419
188.849	52.9959
188.333	53.3324
187.816	53.6677
187.3	53.5825
186.782	53.7798
186.264	53.9575
185.749	54.0935
185.231	54.20874
184.7128	54.2827
184.197	54.326
183.679	54.3364
183.161	54.30114
182.645	54.2431
182.127	54.1474
181.609	54.0104
181.093	53.812
180.575	53.7221
180.057	53.2186
179.54	52.6694
179.022	52.123
178.504	51.5542
177.986	50.9277
177.469	50.3359
176.951	49.863
176.433	49.3858
175.914	48.974
175.3979	48.614
174.879	48.6235
174.361	48.5508
173.842	48.54459
173.326	48.6003
172.807	48.6812
172.289	48.8087
171.77	48.9581
171.254	49.1675
170.735	49.3782
170.216	49.64822
169.697	49.9096
169.179	50.2345
168.662	50.535
168.143	50.9293
167.624	51.45982
167.105	51.9595
166.586	52.4955
166.067	53.03516
165.55	53.5584
165.031	54.0274
164.512	54.419
163.9933	54.7098
163.4742	54.3966
162.955	54.1957
162.4359	53.8241
161.9167	53.4058
161.3996	52.9058
160.88	52.3523
160.361	51.76104
159.842	51.1477
159.3224	50.5594
158.803	49.9596
158.284	49.7364
157.764	49.56636
157.245	49.6438
156.725	50.138
156.206	52.1962
155.686	52.6756
155.169	52.9756
154.649	53.0852
154.13	53.0278
153.61	52.7351
153.09	52.133
152.57	51.0263
152.051	50.2992
151.531	49.7136
151.011	49.19239
150.491	48.7477
149.971	48.4907
149.452	48.5667
148.932	48.92791
148.412	49.2478
147.892	49.407
147.372	49.54966
146.8517	49.6846
146.332	49.8096
145.812	49.92136
145.289	50.0281
144.769	50.1224
144.249	50.21386
143.729	50.29855
143.209	50.3791
142.688	50.4644
142.168	50.5416
141.648	50.64275
141.127	50.7248
140.607	50.8448
140.086	50.9369
139.566	51.0643
139.046	51.1677
138.523	51.28476
138.002	51.3987