File: bartels lab/3642 MoS2 on 1012 WG/Raman_5_21_2015_Dominic/C3_R2/3642 8401x 3291y Raman 1800 T2 D1 100x.txt
650.268	67.81871
649.786	68.8049
649.306	69.3472
648.823	69.9168
648.343	70.6725
647.863	70.4875
647.38	70.2376
646.9	69.9876
646.417	69.7463
645.937	69.5062
645.4541	69.2694
644.974	69.0524
644.491	68.92395
644.01	68.7707
643.528	68.62561
643.047	68.6544
642.564	68.815
642.084	69.197
641.601	69.5576
641.12	69.9895
640.637	70.4048
640.156	70.8632
639.674	71.3112
639.193	71.76165
638.71	72.1916
638.227	72.5848
637.746	72.9199
637.263	73.2628
636.782	73.3746
636.299	73.61998
635.818	73.5187
635.335	73.418
634.852	73.2928
634.371	73.1155
633.887	72.9056
633.406	72.6991
632.9231	72.4584
632.44	72.203
631.959	71.959
631.475	71.6967
630.992	71.4275
630.511	71.1775
630.027	70.8718
629.544	70.7736
629.0625	70.6334
628.579	70.5544
628.096	70.4735
627.614	70.4489
627.131	70.4573
626.647	70.4493
626.163	70.4684
625.682	70.5178
625.198	70.563
624.7146	70.6065
624.233	70.6663
623.749	70.7138
623.2655	70.7741
622.782	70.8335
622.3	70.91571
621.816	70.9473
621.332	70.8674
620.849	70.7623
620.367	70.3713
619.883	70.1155
619.3988	69.799
618.915	69.5581
618.431	69.3272
617.949	68.9523
617.465	68.9904
616.981	69.4557
616.4967	69.8603
616.013	70.32
615.528	70.7192
615.046	71.17881
614.562	71.5905
614.078	71.9565
613.594	72.2721
613.109	72.2512
612.625	72.3697
612.141	72.0792
611.656	71.7348
611.174	71.4055
610.69	71.0051
610.205	70.612
609.721	70.1979
609.236	69.7783
608.752	69.36528
608.267	68.98304
607.783	68.6287
607.298	68.3955
606.814	68.2644
606.329	68.16523
605.844	68.1434
605.36	68.1262
604.875	68.2803
604.39	68.5342
603.9054	68.809
603.421	69.1072
602.936	69.4
602.451	69.727
601.966	70.0015
601.4812	70.2989
600.996	70.5697
600.511	70.815
600.026	70.8005
599.541	70.5549
599.0564	70.30262
598.571	69.9826
598.0863	69.6347
597.6012	69.2627
597.116	68.8974
596.631	68.5614
596.146	68.3153
595.661	68.0447
595.175	67.8706
594.69	67.834
594.205	68.1408
593.717	68.51313
593.232	68.91098
592.747	69.294
592.261	69.728
591.776	70.1266
591.291	70.523
590.805	70.8833
590.32	71.2068
589.832	71.294
589.347	71.3033
588.861	71.2711
588.375	70.8257
587.89	70.3336
587.404	69.8025
586.9165	69.286
586.431	68.7126
585.945	68.15
585.459	67.5993
584.974	67.0815
584.486	66.4849
584	66.4523
583.5141	66.4585
583.0282	66.506
582.54	66.6301
582.054	66.7887
581.568	66.9697
581.082	67.1592
580.594	67.35495
580.1084	67.57254
579.622	67.7515
579.136	67.96109
578.648	68.1024
578.162	68.0703
577.676	68.0582
577.188	68.0217
576.701	67.9328
576.215	67.81955
575.727	67.7068
575.2406	67.5367
574.754	67.3685
574.266	67.1699
573.7796	66.9646
573.293	66.7421
572.805	66.523
572.3183	66.3011
571.832	66.0777
571.343	65.87178
570.857	65.9482
570.368	65.897
569.882	66.0503
569.395	66.2188
568.906	66.4194
568.42	67.0254
567.931	67.6141
567.444	68.1994
566.958	68.7743
566.469	69.3422
565.982	69.8497
565.493	70.37693
565.006	70.7504
564.517	70.69516
564.031	70.4608
563.542	69.9606
563.055	69.4003
562.568	68.8241
562.079	68.2459
561.592	67.6741
561.103	67.1122
560.6156	66.5899
560.126	66.1008
559.639	65.8631
559.15	65.7331
558.661	65.6021
558.174	65.6397
557.685	65.8123
557.197	66.08197
556.708	66.4434
556.221	66.9146
555.731	67.4834
555.244	68.1857
554.755	68.9461
554.265	69.7137
553.778	70.501
553.288	71.3186
552.801	72.1232
552.311	72.19
551.822	72.0465
551.334	69.6922
550.844	68.7357
550.357	68.8818
549.867	69.5229
549.377	70.4082
548.89	71.8633
548.4	70.4567
547.91	70.498
547.422	70.7865
546.933	70.81456
546.443	70.2319
545.955	70.4232
545.465	70.0965
544.975	70.81823
544.487	71.5031
543.997	72.3901
543.507	73.4247
543.019	75.0657
542.529	75.9517
542.039	76.27739
541.549	76.2872
541.061	76.2021
540.5705	75.7579
540.08	75.4574
539.59	75.7535
539.102	76.9044
538.612	77.2767
538.121	77.4167
537.631	77.74855
537.141	78.2552
536.652	78.9279
536.1618	79.7738
535.671	80.7752
535.181	81.9221
534.69	83.1771
534.202	85.185
533.711	87.1901
533.221	88.7013
532.73	89.97493
532.24	91.2085
531.751	93.0688
531.26	94.8381
530.77	97.6544
530.279	101.677
529.788	103.948
529.297	107.117
528.807	110.3296
528.316	114.876
527.8269	120.804
527.336	128.172
526.845	137.831
526.354	150.084
525.863	168.206
525.372	194.492
524.881	222.157
524.3902	248.591
523.899	331.0643
523.408	403.857
522.917	543.914
522.426	721.257
521.935	978.164
521.443	1236
520.952	1432
520.461	1467
519.9696	1283
519.478	1008
518.987	741
518.496	584
518.004	420
517.513	334
517.021	294.915
516.53	230.437
516.038	193.649
515.547	174.288
515.055	160.696
514.564	150.158
514.0722	141.5206
513.581	132.845
513.089	125.145
512.597	118.384
512.106	112.389
511.6138	107.1092
511.122	102.571
510.63	98.7365
510.138	95.4334
509.645	92.1012
509.153	89.2693
508.661	86.8686
508.169	84.864
507.677	83.22184
507.185	81.8948
506.693	80.881
506.201	80.0888
505.707	79.4582
505.215	78.633
504.723	77.7649
504.231	77.0059
503.738	76.3641
503.246	75.8266
502.752	75.4395
502.2598	75.1624
501.768	74.9974
501.275	74.9299
500.783	74.94696
500.289	75.0366
499.796	75.1256
499.3038	75.1772
498.811	75.1785
498.317	74.6764
497.824	73.5958
497.332	72.6762
496.839	71.8755
496.345	71.1507
495.852	70.454
495.36	69.8167
494.867	69.878
494.372	70.1507
493.88	71.6785
493.3869	72.1496
492.892	72.5552
492.399	72.7156
491.907	72.4375
491.412	72.1164
490.919	71.4116
490.426	70.99
489.931	70.6547
489.438	70.336
488.945	70.0534
488.45	69.4123
487.957	68.7505
487.464	68.11235
486.969	67.51683
486.476	66.9732
485.983	66.499
485.488	66.0703
484.994	65.70565
484.499	65.399
484.006	65.1532
483.513	64.9939
483.017	64.9256
482.524	65.0195
482.029	65.2133
481.535	65.5455
481.04	65.9321
480.547	66.5848
480.053	67.1897
479.558	67.8011
479.064	68.344
478.569	68.0023
478.075	67.6429
477.58	67.3189
477.086	67.5853
476.59	67.8099
476.097	67.8702
475.601	67.859
475.107	67.8619
474.611	67.7088
474.118	67.4284
473.622	67.2315
473.128	67.5742
472.6322	68.0223
472.138	68.3426
471.6424	68.46682
471.146	68.4645
470.653	68.3884
470.156	68.1261
469.663	67.9109
469.166	67.8495
468.672	67.9573
468.1763	68.2644
467.68	68.6283
467.186	69.0238
466.69	69.4638
466.196	69.8792
465.6994	70.1575
465.203	70.4059
464.709	70.6891
464.213	71.0099
463.716	71.4341
463.222	72.2728
462.7254	73.0861
462.231	73.8413
461.735	74.08596
461.238	74.0284
460.744	73.8764
460.247	73.732
459.75	73.9172
459.254	74.2421
458.759	74.5448
458.263	74.6172
457.766	74.6717
457.2713	74.7357
456.775	74.84066
456.2778	75.1987
455.783	75.6026
455.286	75.7845
454.7894	75.683
454.293	75.5009
453.7977	75.2341
453.301	74.9296
452.8038	74.6119
452.307	74.3539
451.81	74.1636
451.315	74.0754
450.818	74.0944
450.321	74.2062
449.824	74.2365
449.329	74.1194
448.831	73.8245
448.334	73.0846
447.837	72.2568
447.34	71.4958
446.842	71.0375
446.347	70.68457
445.85	70.3892
445.352	70.1467
444.8551	69.9559
444.3577	69.7996
443.86	69.6588
443.363	69.57547
442.867	69.5625
442.37	69.7011
441.872	70.095
441.375	70.473
440.877	70.6763
440.379	70.7083
439.882	70.6167
439.384	70.4464
438.886	70.213
438.389	69.9235
437.891	69.7147
437.395	69.3664
436.897	69.4767
436.3996	69.6508
435.902	69.8484
435.404	70.0619
434.906	70.2788
434.408	70.4866
433.91	70.68
433.412	70.8493
432.914	71.0009
432.416	71.11422
431.918	71.1763
431.42	71.2056
430.922	71.0932
430.4234	70.99855
429.9252	70.865
429.427	70.713
428.929	70.5402
428.43	70.3605
427.932	70.158
427.434	69.9289
426.935	69.6531
426.435	69.3107
425.937	68.9314
425.4382	68.5117
424.94	68.06044
424.441	67.5808
423.943	67.104
423.444	66.6127
422.946	66.1407
422.447	65.71003
421.948	65.3414
421.45	65.8663
420.949	66.4311
420.45	67.7148
419.952	68.3351
419.453	68.9673
418.954	69.6581
418.4552	70.3577
417.956	70.9892
417.455	71.5081
416.957	71.9189
416.458	72.2177
415.959	72.4266
415.46	72.5462
414.961	72.58667
414.46	72.5727
413.961	72.4584
413.461	72.3261
412.962	72.32
412.461	72.3843
411.962	72.9012
411.463	74.2207
410.964	74.8496
410.464	76.4519
409.963	77.8625
409.464	80.5907
408.964	83.5278
408.465	87.0619
407.964	90.3804
407.464	94.2467
406.965	98.09729
406.463	103.705
405.964	109.285
405.464	114.084
404.9646	119.278
404.463	124.843
403.963	122.977
403.464	119.472
402.962	114.5452
402.462	102.015
401.963	93.98748
401.461	87.6093
400.961	81.6761
400.461	79.0289
399.959	75.6795
399.46	74.172
398.958	72.6821
398.4577	71.4778
397.958	71.0061
397.456	70.6816
396.956	70.438
396.454	70.3155
395.954	70.284
395.454	70.4006
394.951	70.37886
394.451	69.4889
393.9491	69.4909
393.449	69.6265
392.949	69.6568
392.446	69.7617
391.946	69.717
391.444	70.6903
390.944	70.726
390.441	71.0398
389.941	70.74
389.438	70.1667
388.938	70.0666
388.435	70.6206
387.935	71.3493
387.432	72.3189
386.932	73.3444
386.429	74.3417
385.929	78.905
385.4259	86.1357
384.925	97.8348
384.423	102.624
383.922	101.036
383.419	98.609
382.918	95.8159
382.4155	91.4028
381.915	86.63324
381.4118	81.6535
380.909	78.4876
380.408	74.1837
379.905	71.9515
379.404	69.9896
378.901	69.2166
378.398	69.2283
377.897	70.1843
377.394	71.05867
376.893	71.313
376.39	72.3515
375.886	72.9405
375.385	73.4564
374.882	73.6699
374.379	73.8721
373.877	72.7001
373.374	71.297
372.871	70.1817
372.369	69.1764
371.866	68.2326
371.363	67.4814
370.861	66.9546
370.3577	66.6252
369.854	66.5543
369.353	66.5425
368.849	66.9925
368.345	67.4752
367.844	68.05307
367.34	68.607
366.837	69.1948
366.333	69.756
365.831	70.01403
365.327	70.4082
364.824	70.2264
364.32	69.97332
363.818	69.6207
363.314	69.2219
362.81	68.78244
362.306	68.3319
361.804	67.9008
361.3	67.4333
360.796	66.6851
360.292	66.4802
359.788	66.3779
359.286	66.36586
358.782	66.3621
358.278	66.3886
357.774	66.4337
357.269	66.4641
356.765	66.5257
356.263	66.5743
355.759	66.635
355.254	66.68792
354.75	66.7317
354.246	66.7771
353.741	66.799
353.237	66.8317
352.734	66.7559
352.23	66.7118
351.7254	66.6262
351.221	66.5624
350.716	66.5153
350.2117	66.4418
349.707	66.3866
349.202	66.309
348.698	66.2486
348.193	66.1745
347.688	66.1116
347.186	66.0467
346.681	65.9831
346.176	65.9284
345.671	65.8651
345.166	65.8213
344.661	65.7583
344.1564	65.7185
343.651	65.6552
343.146	65.6166
342.641	65.5525
342.136	65.512
341.631	65.4464
341.126	65.4027
340.621	65.3353
340.116	65.284
339.611	65.2226
339.106	65.16909
338.6	65.1091
338.095	65.0519
337.59	64.99514
337.084	64.9378
336.577	64.89
336.072	64.8428
335.566	64.8085
335.061	64.7788
334.555	64.7634
334.05	64.76017
333.544	64.7765
333.039	64.8249
332.5332	65.3846
332.028	65.8199
331.522	66.3337
331.014	66.9332
330.509	67.6199
330.003	68.1438
329.497	68.7858
328.991	69.2504
328.486	69.6253
327.98	69.5892
327.474	69.57283
326.966	69.4936
326.46	69.367
325.9541	69.1581
325.448	68.8983
324.942	68.5577
324.434	68.1595
323.928	67.7229
323.422	67.27684
322.916	66.8364
322.41	66.3471
321.902	65.9068
321.395	65.5282
320.889	65.1741
320.383	64.8168
319.877	64.4662
319.368	64.1295
318.862	63.9208
318.356	63.7697
317.849	63.5491
317.341	63.6813
316.834	63.9193
316.328	64.1809
315.819	64.58313
315.313	64.94696
314.806	65.5154
314.3	65.9972
313.791	66.4356
313.284	66.8513
312.778	67.2771
312.269	67.4402
311.762	67.7089
311.255	67.9802
310.747	68.2196
310.24	68.4512
309.733	68.70443
309.224	68.8496
308.717	69.3364
308.2103	69.8423
307.701	70.2935
307.194	70.9677
306.685	71.4048
306.178	71.8358
305.6712	72.2078
305.162	72.5307
304.655	72.7961
304.146	72.6462
303.639	72.109
303.131	71.6424
302.6221	71.1707
302.115	70.6944
301.6055	70.2015
301.098	69.7124
300.589	69.22361
300.081	68.7421
299.5741	68.28257
299.065	67.8375
298.557	67.6701
298.048	67.6523
297.54	67.652
297.031	67.6771
296.523	67.7489
296.013	67.8359
295.506	67.9366
294.996	68.0437
294.488	68.1473
293.979	68.2297
293.471	68.2939
292.961	68.3297
292.453	68.3186
291.943	68.0806
291.436	67.7031
290.926	67.2918
290.416	66.8521
289.908	66.4046
289.398	65.9536
288.89	65.4998
288.38	65.0591
287.872	64.61866
287.362	64.1975
286.851	63.8042
286.343	63.4332
285.833	63.3906
285.325	63.5253
284.815	63.6794
284.304	63.8814
283.796	64.1078
283.286	64.35
282.777	64.59227
282.267	64.8242
281.7565	65.0351
281.248	65.1948
280.738	65.33
280.227	64.94442
279.719	64.6505
279.208	64.198
278.697	63.6377
278.189	63.0151
277.678	62.3572
277.168	61.7382
276.657	61.0341
276.148	61.6672
275.637	62.3141
275.127	62.9629
274.618	63.587
274.1069	64.1657
273.596	64.6536
273.085	65.0051
272.576	65.2433
272.065	65.3907
271.554	65.4884
271.043	65.475
270.534	65.4079
270.023	65.265
269.512	65.1236
269.001	64.7907
268.492	64.39637
267.981	63.9828
267.469	63.5439
266.958	63.0903
266.447	62.5874
265.938	62.1263
265.426	61.4756
264.915	61.1877
264.403	60.8853
263.892	60.745
263.381	60.5878
262.871	60.4798
262.36	60.4823
261.848	60.4683
261.337	60.5099
260.825	60.6312
260.313	60.68
259.802	60.6894
259.292	60.7308
258.78	60.7348
258.269	60.7772
257.757	60.7759
257.245	60.6628
256.733	60.6033
256.221	60.5872
255.709	60.53513
255.198	60.483
254.686	60.4491
254.174	60.4289
253.662	60.419
253.1517	60.4131
252.64	60.4315
252.128	60.4477
251.615	60.4968
251.103	60.5385
250.591	60.6191
250.079	60.693
249.567	60.8078
249.054	60.9195
248.542	61.063
248.03	61.2079
247.518	61.4914
247.0052	61.6982
246.493	61.8984
245.98	62.1128
245.468	62.3202
244.955	62.5269
244.443	62.4985
243.93	62.5381
243.418	62.0841
242.905	61.6563
242.391	61.1658
241.8779	60.7003
241.365	60.2719
240.853	59.8766
240.34	59.5414
239.827	59.2603
239.314	59.5492
238.801	59.76479
238.289	60.1534
237.7757	60.8511
237.2628	61.5695
236.748	62.2254
236.2348	62.8289
235.722	63.3369
235.2088	63.0808
234.696	62.7529
234.183	62.3038
233.67	61.734
233.154	61.0604
232.641	60.47229
232.128	59.8429
231.615	59.2571
231.102	58.7726
230.588	58.8097
230.073	59.0159
229.56	59.2099
229.046	58.9059
228.533	59.95034
228.019	61.6522
227.504	63.118
226.99	64.3597
226.477	65.2042
225.963	65.676
225.45	65.7045
224.9341	65.1951
224.42	64.1683
223.907	61.5
223.393	52.9319
222.877	55.2209
222.364	58.479
221.85	58.9257
221.334	59.2598
220.82	59.5434
220.306	59.7525
219.792	59.95673
219.276	60.0803
218.763	60.181
218.2486	60.2144
217.7325	60.2362
217.218	60.2548
216.704	60.1409
216.188	60.1493
215.674	59.88525
215.16	59.6201
214.6438	59.2955
214.13	58.9753
213.6154	58.626
213.099	58.2738
212.585	57.9313
212.07	57.537
211.554	57.2444
211.0397	56.7624
210.523	56.6227
210.0088	56.464
209.494	56.446
208.978	56.6503
208.463	56.8024
207.947	56.8623
207.4321	57.0429
206.918	57.3924
206.4008	57.3609
205.886	57.3004
205.369	57.2212
204.855	57.1529
204.338	56.792
203.8231	56.6273
203.306	56.3496
202.791	56.16703
202.277	55.8666
201.7596	55.6462
201.245	55.34819
200.728	55.2637
200.213	55.2275
199.696	55.1723
199.1806	55.2528
198.663	55.2995
198.148	55.3331
197.631	55.4422
197.114	55.52903
196.5988	55.6063
196.0815	55.6972
195.5663	55.8578
195.049	55.9356
194.534	56.0323
194.016	56.1452
193.501	56.2012
192.983	56.2679
192.468	56.31398
191.951	56.3634
191.433	56.3976
190.918	56.4291
190.4	56.4502
189.884	56.46151
189.367	56.3301
188.849	56.3152
188.333	56.2517
187.816	56.2157
187.3	56.1377
186.782	56.0623
186.264	55.9938
185.749	55.9046
185.231	55.8173
184.7128	55.7337
184.197	55.65136
183.679	55.5146
183.161	55.4558
182.645	55.2884
182.127	55.2804
181.609	55.2504
181.093	55.2621
180.575	55.2521
180.057	55.2806
179.54	55.4953
179.022	55.5568
178.504	55.6613
177.986	55.7433
177.469	55.86171
176.951	55.9463
176.433	56.2145
175.914	56.187
175.3979	56.1649
174.879	56.1176
174.361	56.0564
173.842	55.5883
173.326	55.4043
172.807	55.14912
172.289	54.9566
171.77	54.6799
171.254	54.4903
170.735	54.1639
170.216	53.9242
169.697	53.8274
169.179	53.757
168.662	53.88
168.143	53.9489
167.624	54.03231
167.105	54.1375
166.586	54.2476
166.067	54.3459
165.55	54.4655
165.031	54.5756
164.512	54.695
163.9933	54.8092
163.4742	54.9209
162.955	55.0323
162.4359	55.12899
161.9167	55.23196
161.3996	55.3084
160.88	55.4065
160.361	55.4609
159.842	55.4304
159.3224	55.4571
158.803	55.4095
158.284	55.3795
157.764	55.3468
157.245	55.2651
156.725	55.1446
156.206	55.044
155.686	54.9091
155.169	54.7826
154.649	54.6503
154.13	54.5123
153.61	54.3805
153.09	54.2399
152.57	54.1162
152.051	53.98415
151.531	53.917
151.011	53.8559
150.491	53.8446
149.971	53.8459
149.452	53.8608
148.932	53.9037
148.412	54.0822
147.892	54.227
147.372	54.5712
146.8517	54.9199
146.332	55.3093
145.812	55.7034
145.289	56.052
144.769	56.4336
144.249	56.7559
143.729	57.0544
143.209	57.2742
142.688	57.4231
142.168	56.8218
141.648	56.4284
141.127	55.8851
140.607	55.2932
140.086	54.5252
139.566	53.7295
139.046	52.8768
138.523	51.99102
138.002	53.7279