File: bartels lab/3642 MoS2 on 1012 WG/Raman_5_21_2015_Dominic/C3_R2/3642 8432x 3294y Raman 1800 T2 D1 100x.txt
650.268	75.47908
649.786	75.1069
649.306	74.7348
648.823	74.5119
648.343	74.3144
647.863	74.1526
647.38	74.0756
646.9	74.0831
646.417	74.1171
645.937	74.346
645.4541	74.8156
644.974	75.2577
644.491	75.7287
644.01	76.1891
643.528	76.6593
643.047	77.079
642.564	77.5057
642.084	77.9474
641.601	78.2776
641.12	78.2444
640.637	78.1648
640.156	77.9607
639.674	77.7307
639.193	77.4448
638.71	77.1764
638.227	76.9009
637.746	76.6593
637.263	76.4614
636.782	76.5619
636.299	76.8099
635.818	77.1231
635.335	77.4264
634.852	77.8819
634.371	78.4292
633.887	79.111
633.406	80.0774
632.9231	80.9522
632.44	81.4136
631.959	81.5546
631.475	81.0476
630.992	80.3603
630.511	79.58567
630.027	78.8252
629.544	78.2111
629.0625	77.8935
628.579	77.7369
628.096	77.7491
627.614	77.9362
627.131	78.4887
626.647	79.4288
626.163	80.397
625.682	81.4145
625.198	82.41777
624.7146	83.17347
624.233	83.7699
623.749	84.344
623.2655	84.3088
622.782	84.2197
622.3	83.917
621.816	83.5693
621.332	83.1128
620.849	82.4146
620.367	81.9943
619.883	81.5567
619.3988	81.1128
618.915	80.9706
618.431	80.781
617.949	80.5818
617.465	80.506
616.981	80.3178
616.4967	79.9262
616.013	79.5738
615.528	79.1085
615.046	78.6765
614.562	77.9388
614.078	77.3969
613.594	76.8895
613.109	76.415
612.625	76.02639
612.141	75.6795
611.656	75.6059
611.174	75.6284
610.69	75.7671
610.205	76.0768
609.721	76.4719
609.236	76.8642
608.752	76.9949
608.267	76.9765
607.783	76.74498
607.298	76.2139
606.814	75.3611
606.329	74.2961
605.844	72.9374
605.36	71.8689
604.875	70.1113
604.39	70.2426
603.9054	70.8356
603.421	71.9487
602.936	73.4358
602.451	75.0405
601.966	76.7175
601.4812	78.2256
600.996	79.3145
600.511	80.1139
600.026	80.7305
599.541	80.4698
599.0564	79.8382
598.571	79.28273
598.0863	78.6869
597.6012	78.1223
597.116	77.5723
596.631	77.0519
596.146	76.5818
595.661	76.1108
595.175	75.6207
594.69	75.2282
594.205	74.8324
593.717	74.4615
593.232	74.07531
592.747	73.7188
592.261	73.3967
591.776	73.097
591.291	72.8502
590.805	72.6268
590.32	72.4683
589.832	72.3354
589.347	72.2535
588.861	72.2653
588.375	72.3249
587.89	72.4271
587.404	72.5862
586.9165	72.8292
586.431	73.2826
585.945	73.7792
585.459	74.3503
584.974	74.9663
584.486	75.5148
584	76.0155
583.5141	76.4848
583.0282	76.8837
582.54	76.8621
582.054	76.6341
581.568	76.2576
581.082	75.8133
580.594	75.3765
580.1084	74.9026
579.622	74.4292
579.136	73.9665
578.648	73.595
578.162	73.21
577.676	73.1255
577.188	73.14489
576.701	73.2104
576.215	73.2275
575.727	73.6398
575.2406	74.1052
574.754	74.5509
574.266	75.0698
573.7796	75.57122
573.293	76.0387
572.805	76.6145
572.3183	77.0018
571.832	77.2955
571.343	77.3889
570.857	77.393
570.368	77.3883
569.882	77.3392
569.395	77.2631
568.906	77.18586
568.42	77.0766
567.931	76.9692
567.444	76.8961
566.958	76.7295
566.469	76.5065
565.982	76.326
565.493	76.0926
565.006	75.8868
564.517	75.6563
564.031	75.489
563.542	75.2859
563.055	75.1317
562.568	74.9539
562.079	74.5815
561.592	74.6595
561.103	74.76226
560.6156	74.9197
560.126	75.3605
559.639	75.6231
559.15	75.90744
558.661	76.1907
558.174	76.489
557.685	76.7365
557.197	77.0008
556.708	77.2469
556.221	77.4291
555.731	77.491
555.244	77.4493
554.755	77.4434
554.265	77.4073
553.778	77.36129
553.288	77.2978
552.801	77.2259
552.311	77.1477
551.822	77.0657
551.334	76.9865
550.844	76.8942
550.357	76.8021
549.867	76.6698
549.377	76.6901
548.89	76.7255
548.4	76.7813
547.91	76.9033
547.422	77.2355
546.933	77.5667
546.443	78.1086
545.955	78.2636
545.465	78.3983
544.975	78.5505
544.487	78.68338
543.997	78.8367
543.507	78.7407
543.019	78.7854
542.529	78.905
542.039	79.054
541.549	79.2837
541.061	79.50573
540.5705	79.9769
540.08	80.3312
539.59	80.8611
539.102	81.4841
538.612	81.9136
538.121	82.4375
537.631	82.9957
537.141	83.6422
536.652	84.3622
536.1618	85.1656
535.671	86.09465
535.181	87.1271
534.69	88.3236
534.202	89.6844
533.711	91.61013
533.221	93.9348
532.73	96.3536
532.24	98.8838
531.751	101.451
531.26	104.083
530.77	106.123
530.279	108.737
529.788	111.5
529.297	114.738
528.807	118.436
528.316	123.094
527.8269	129.296
527.336	137.134
526.845	146.445
526.354	158.034
525.863	173.175
525.372	197.752
524.881	218.9006
524.3902	254.013
523.899	321.193
523.408	399.129
522.917	516.4
522.426	728.876
521.935	997.036
521.443	1233
520.952	1451
520.461	1420
519.9696	1189
519.478	983.686
518.987	717.6095
518.496	509.1832
518.004	408.345
517.513	336.855
517.021	276.6795
516.53	233.42
516.038	202.4268
515.547	179.346
515.055	159.4985
514.564	148.178
514.0722	137.878
513.581	129.302
513.089	122.267
512.597	116.531
512.106	111.733
511.6138	107.413
511.122	103.715
510.63	100.609
510.138	98.0027
509.645	95.7503
509.153	94.021
508.661	92.43
508.169	90.946
507.677	89.53064
507.185	88.12796
506.693	86.7363
506.201	85.38031
505.707	84.0713
505.215	82.8582
504.723	81.689
504.231	80.6494
503.738	79.4148
503.246	78.2624
502.752	77.1816
502.2598	76.1475
501.768	75.216
501.275	74.4558
500.783	73.7661
500.289	73.33503
499.796	72.8658
499.3038	73.3319
498.811	73.8095
498.317	74.36618
497.824	74.9595
497.332	75.5286
496.839	76.1026
496.345	76.66877
495.852	76.9669
495.36	77.0352
494.867	76.8597
494.372	76.5991
493.88	76.312
493.3869	75.92926
492.892	75.5497
492.399	75.2034
491.907	74.7719
491.412	74.39386
490.919	74.3112
490.426	74.549
489.931	74.7139
489.438	74.9118
488.945	75.0805
488.45	75.28392
487.957	75.3927
487.464	75.5223
486.969	75.5658
486.476	75.5435
485.983	75.232
485.488	74.8346
484.994	74.5197
484.499	74.1391
484.006	73.7782
483.513	73.3589
483.017	72.971
482.524	72.549
482.029	72.0408
481.535	71.542
481.04	71.0642
480.547	70.659
480.053	70.4474
479.558	70.4072
479.064	70.7926
478.569	71.5851
478.075	72.2058
477.58	72.78495
477.086	73.1465
476.59	73.4778
476.097	73.6981
475.601	73.6627
475.107	73.546
474.611	73.4367
474.118	73.2989
473.622	73.15403
473.128	73.021
472.6322	72.82769
472.138	72.772
471.6424	72.4225
471.146	72.6334
470.653	72.8272
470.156	73.19416
469.663	73.57045
469.166	74.0234
468.672	74.4163
468.1763	74.8289
467.68	75.17939
467.186	75.5337
466.69	75.8292
466.196	75.8473
465.6994	76.0104
465.203	76.0834
464.709	76.1624
464.213	76.24427
463.716	76.2904
463.222	76.3867
462.7254	76.243
462.231	76.112
461.735	75.9423
461.238	75.7697
460.744	75.6074
460.247	75.4397
459.75	75.3302
459.254	75.2287
458.759	75.2032
458.263	75.5186
457.766	76.3779
457.2713	77.1468
456.775	78.0015
456.2778	78.8458
455.783	79.68248
455.286	80.4603
454.7894	80.49839
454.293	80.3238
453.7977	81.2426
453.301	82.0845
452.8038	82.7459
452.307	82.3177
451.81	81.6544
451.315	81.0621
450.818	80.6694
450.321	80.3079
449.824	80.20575
449.329	80.1918
448.831	80.1841
448.334	80.2564
447.837	80.3407
447.34	80.4402
446.842	80.6242
446.347	80.8026
445.85	80.7394
445.352	80.6473
444.8551	80.5378
444.3577	80.2555
443.86	80.0674
443.363	79.781
442.867	79.5124
442.37	79.2248
441.872	78.912
441.375	78.6975
440.877	78.6155
440.379	78.5549
439.882	78.5544
439.384	78.85392
438.886	79.0406
438.389	79.1709
437.891	79.2152
437.395	79.2135
436.897	79.1488
436.3996	79.0609
435.902	78.6563
435.404	78.4117
434.906	78.1512
434.408	77.93071
433.91	77.7924
433.412	77.4773
432.914	77.2181
432.416	76.967
431.918	76.7425
431.42	76.50666
430.922	76.3056
430.4234	76.1316
429.9252	75.9842
429.427	75.8913
428.929	75.87664
428.43	75.93045
427.932	76.0894
427.434	76.2485
426.935	76.5526
426.435	76.9102
425.937	77.366
425.4382	78.0176
424.94	78.74192
424.441	79.4523
423.943	80.184
423.444	80.9048
422.946	81.5574
422.447	81.6812
421.948	81.0038
421.45	79.6287
420.949	78.9075
420.45	78.5406
419.952	78.4814
419.453	78.6826
418.954	78.90744
418.4552	80.7681
417.956	80.58802
417.455	80.2263
416.957	78.7947
416.458	77.6881
415.959	77.1314
415.46	77.073
414.961	77.4115
414.46	77.6426
413.961	77.8703
413.461	78.2322
412.962	78.7
412.461	79.2442
411.962	80.0307
411.463	80.9626
410.964	82.1459
410.464	83.51857
409.963	85.156
409.464	87.03849
408.964	89.2032
408.465	91.7441
407.964	94.5799
407.464	97.8413
406.965	101.699
406.463	105.836
405.964	110.687
405.464	116.809
404.9646	123.545
404.463	130.2206
403.963	132.567
403.464	126.357
402.962	110.0999
402.462	103.094
401.963	96.2043
401.461	91.0075
400.961	88.2691
400.461	85.5633
399.959	83.4298
399.46	81.659
398.958	80.15316
398.4577	78.9723
397.958	78.0399
397.456	77.331
396.956	76.8904
396.454	76.57534
395.954	76.4721
395.454	76.5098
394.951	76.53
394.451	76.6985
393.9491	76.32196
393.449	75.7268
392.949	75.2393
392.446	74.8703
391.946	74.6309
391.444	74.5782
390.944	74.6907
390.441	75.0382
389.941	75.5796
389.438	76.3032
388.938	77.2356
388.435	78.3525
387.935	79.6794
387.432	81.1624
386.932	82.8974
386.429	84.6992
385.929	86.9016
385.4259	89.07766
384.925	91.1482
384.423	92.3086
383.922	92.8655
383.419	93.0233
382.918	92.62867
382.4155	91.7281
381.915	90.3692
381.4118	88.69
380.909	86.7758
380.408	84.69783
379.905	82.75882
379.404	80.9437
378.901	79.4301
378.398	78.2196
377.897	77.30027
377.394	76.9435
376.893	76.8136
376.39	76.52533
375.886	76.263
375.385	76.0685
374.882	75.8523
374.379	75.6916
373.877	75.4731
373.374	75.2773
372.871	75.0281
372.369	74.8102
371.866	74.5791
371.363	74.3245
370.861	74.0484
370.3577	73.71244
369.854	73.3265
369.353	72.9032
368.849	72.2896
368.345	71.5908
367.844	71.3524
367.34	72.2288
366.837	73.109
366.333	73.953
365.831	74.7981
365.327	75.5266
364.824	76.01403
364.32	76.3014
363.818	75.84565
363.314	75.431
362.81	75.3414
362.306	75.1582
361.804	74.8209
361.3	74.7993
360.796	74.8586
360.292	74.9782
359.788	74.684
359.286	74.2649
358.782	73.812
358.278	73.46946
357.774	73.0188
357.269	72.7677
356.765	72.6049
356.263	72.4699
355.759	72.3782
355.254	72.2787
354.75	72.1964
354.246	72.1458
353.741	72.0471
353.237	71.9865
352.734	71.9018
352.23	71.84964
351.7254	71.6822
351.221	71.4246
350.716	71.0838
350.2117	70.7937
349.707	70.4431
349.202	70.0221
348.698	69.7246
348.193	69.3817
347.688	69.1098
347.186	68.9063
346.681	68.75853
346.176	68.6568
345.671	69.0012
345.166	69.2573
344.661	69.7047
344.1564	70.176
343.651	70.6468
343.146	71.1487
342.641	71.6194
342.136	72.1125
341.631	72.5551
341.126	72.9567
340.621	72.9771
340.116	73.1152
339.611	73.2279
339.106	73.3152
338.6	73.4809
338.095	73.6269
337.59	73.8577
337.084	74.0655
336.577	74.3965
336.072	74.6047
335.566	72.2645
335.061	72.0226
334.555	71.8252
334.05	71.6401
333.544	71.4729
333.039	71.3037
332.5332	71.15567
332.028	71.0043
331.522	70.8891
331.014	70.8076
330.509	70.7203
330.003	70.6631
329.497	70.7908
328.991	70.9203
328.486	71.0825
327.98	71.2651
327.474	71.44783
326.966	71.6494
326.46	71.8344
325.9541	72.0316
325.448	72.1997
324.942	72.39
324.434	72.6105
323.928	72.7019
323.422	72.7541
322.916	72.555
322.41	72.3789
321.902	72.1138
321.395	71.8567
320.889	71.5417
320.383	71.2684
319.877	70.9694
319.368	70.6935
318.862	70.4804
318.356	70.3357
317.849	70.21994
317.341	70.6808
316.834	71.0264
316.328	71.41848
315.819	72.0405
315.313	72.8114
314.806	73.7531
314.3	74.78286
313.791	72.4747
313.284	72.5448
312.778	72.6073
312.269	72.7278
311.762	73.0033
311.255	73.4912
310.747	73.94426
310.24	74.4697
309.733	74.9447
309.224	75.3873
308.717	75.8043
308.2103	76.08918
307.701	76.356
307.194	76.42205
306.685	76.4776
306.178	76.3237
305.6712	76.16082
305.162	75.6738
304.655	75.1515
304.146	74.539
303.639	73.6774
303.131	73.0359
302.6221	72.5461
302.115	73.2187
301.6055	73.8183
301.098	74.4091
300.589	74.9679
300.081	75.3964
299.5741	75.8991
299.065	76.0591
298.557	76.2985
298.048	76.1979
297.54	76.0173
297.031	75.7012
296.523	75.3697
296.013	74.9532
295.506	74.5128
294.996	74.0225
294.488	73.4912
293.979	72.9563
293.471	72.3789
292.961	71.8509
292.453	71.3191
291.943	71.0741
291.436	70.65889
290.926	70.2067
290.416	69.695
289.908	69.2642
289.398	68.8201
288.89	68.3996
288.38	68.0087
287.872	67.741
287.362	67.4955
286.851	67.4108
286.343	67.4038
285.833	67.9065
285.325	68.2774
284.815	68.8685
284.304	69.5094
283.796	70.1635
283.286	70.9663
282.777	71.2206
282.267	71.2289
281.7565	71.026
281.248	70.8517
280.738	70.6071
280.227	70.3153
279.719	70.0769
279.208	69.8233
278.697	69.5867
278.189	69.3434
277.678	69.1443
277.168	68.93557
276.657	68.7523
276.148	68.5864
275.637	68.4323
275.127	68.2802
274.618	68.1667
274.1069	68.0142
273.596	68.0113
273.085	68.1646
272.576	68.3956
272.065	68.6063
271.554	68.9129
271.043	69.167
270.534	69.4223
270.023	69.6796
269.512	69.8946
269.001	70.0699
268.492	70.2108
267.981	70.0119
267.469	69.9294
266.958	69.811
266.447	69.6475
265.938	69.4443
265.426	69.0472
264.915	68.6612
264.403	68.2231
263.892	67.7818
263.381	67.3927
262.871	67.024
262.36	66.7183
261.848	66.4936
261.337	66.6614
260.825	67.18988
260.313	67.6914
259.802	68.2583
259.292	68.8451
258.78	69.0403
258.269	68.6529
257.757	68.43219
257.245	67.8823
256.733	67.24926
256.221	66.6274
255.709	66.0518
255.198	65.5411
254.686	65.1645
254.174	64.8072
253.662	64.6764
253.1517	64.5586
252.64	64.7263
252.128	64.8465
251.615	65.4221
251.103	66.1705
250.591	66.7243
250.079	67.3657
249.567	67.8405
249.054	68.1524
248.542	67.9782
248.03	67.8637
247.518	67.6453
247.0052	67.3304
246.493	66.9719
245.98	66.596
245.468	66.22
244.955	65.847
244.443	65.5286
243.93	65.2102
243.418	65.0728
242.905	64.9056
242.391	64.9093
241.8779	64.8908
241.365	65.1655
240.853	65.6273
240.34	65.8547
239.827	65.9549
239.314	65.8501
238.801	65.0183
238.289	64.4012
237.7757	63.688
237.2628	62.9921
236.748	62.39632
236.2348	61.8995
235.722	61.5699
235.2088	61.4577
234.696	61.5028
234.183	61.63015
233.67	61.8741
233.154	62.2064
232.641	62.581
232.128	63.2549
231.615	63.993
231.102	64.7246
230.588	65.4303
230.073	66.0776
229.56	66.6943
229.046	67.1701
228.533	67.3831
228.019	67.3272
227.504	67.1014
226.99	66.7623
226.477	66.0683
225.963	65.3186
225.45	64.5349
224.9341	63.6773
224.42	62.7708
223.907	62.0187
223.393	61.5833
222.877	61.1412
222.364	61.1331
221.85	61.21
221.334	61.3608
220.82	61.5684
220.306	61.7603
219.792	61.9659
219.276	62.1363
218.763	62.3321
218.2486	62.3377
217.7325	62.33783
217.218	62.3512
216.704	62.3885
216.188	62.3687
215.674	62.3943
215.16	62.4001
214.6438	62.4041
214.13	62.4167
213.6154	62.3799
213.099	62.3672
212.585	62.311
212.07	62.2249
211.554	62.06778
211.0397	61.8673
210.523	61.4957
210.0088	61.0402
209.494	60.5879
208.978	59.7827
208.463	59.2246
207.947	58.7448
207.4321	58.2801
206.918	57.9542
206.4008	58.1313
205.886	58.4648
205.369	58.8865
204.855	59.31443
204.338	59.6377
203.8231	59.9728
203.306	60.2096
202.791	60.3595
202.277	60.2208
201.7596	59.971
201.245	59.7156
200.728	59.4259
200.213	59.12698
199.696	58.8014
199.1806	58.5258
198.663	58.2843
198.148	58.059
197.631	57.8984
197.114	57.7848
196.5988	57.82592
196.0815	57.9639
195.5663	58.0897
195.049	58.2418
194.534	58.3936
194.016	58.5905
193.501	58.8013
192.983	59.0278
192.468	59.2769
191.951	59.5603
191.433	59.7794
190.918	60.1017
190.4	60.4391
189.884	60.73167
189.367	61.0343
188.849	61.3302
188.333	61.6
187.816	61.7425
187.3	61.8545
186.782	61.822
186.264	61.7214
185.749	61.1469
185.231	60.6593
184.7128	60.0398
184.197	59.4544
183.679	58.8772
183.161	58.2959
182.645	57.8709
182.127	57.9864
181.609	59.896
181.093	60.1823
180.575	60.42424
180.057	60.6209
179.54	60.9393
179.022	60.8327
178.504	60.6982
177.986	60.5063
177.469	60.3337
176.951	60.0555
176.433	59.8739
175.914	59.6926
175.3979	59.5198
174.879	59.3622
174.361	59.2112
173.842	59.0902
173.326	58.98391
172.807	58.9104
172.289	58.834
171.77	58.8097
171.254	58.8081
170.735	58.8287
170.216	58.85051
169.697	58.8807
169.179	58.9008
168.662	58.9204
168.143	58.9516
167.624	58.9771
167.105	59.0145
166.586	59.049
166.067	59.091
165.55	59.115
165.031	59.1691
164.512	59.2493
163.9933	59.3492
163.4742	59.4456
162.955	59.5299
162.4359	59.5908
161.9167	59.7465
161.3996	59.8961
160.88	60.0702
160.361	60.2309
159.842	60.3971
159.3224	60.5606
158.803	60.724
158.284	60.8782
157.764	61.0275
157.245	61.1634
156.725	61.2824
156.206	61.39534
155.686	61.4826
155.169	61.5732
154.649	61.6158
154.13	61.6471
153.61	61.64
153.09	61.6137
152.57	61.3879
152.051	61.1688
151.531	60.967
151.011	60.7762
150.491	60.6825
149.971	60.3635
149.452	59.9907
148.932	59.6026
148.412	59.205
147.892	58.7999
147.372	58.4181
146.8517	58.0399
146.332	57.7058
145.812	57.3722
145.289	57.105
144.769	57.0251
144.249	56.9387
143.729	56.843
143.209	57.0723
142.688	57.2925
142.168	57.5301
141.648	57.8599
141.127	58.2041
140.607	58.5448
140.086	58.8295
139.566	59.0198
139.046	58.1825
138.523	57.0206
138.002	55.5842