File: bartels lab/3642 MoS2 on 1012 WG/raman1_dominic/R2_C1/3642 R2C1 waveguide 2934x 4380y Raman 1800 t2 d1 100x.txt
650.268	79.40416
649.786	78.242
649.306	77.3083
648.823	76.4272
648.343	76.1921
647.863	75.9313
647.38	76.483
646.9	77.0686
646.417	77.7469
645.937	78.4396
645.4541	79.1235
644.974	79.7506
644.491	80.3278
644.01	80.8922
643.528	81.3543
643.047	81.7795
642.564	82.061
642.084	82.2397
641.601	82.3221
641.12	82.4048
640.637	82.2017
640.156	82.0023
639.674	81.7111
639.193	81.4208
638.71	81.0932
638.227	80.7904
637.746	80.5239
637.263	80.3336
636.782	80.4848
636.299	80.5583
635.818	80.8398
635.335	81.2551
634.852	81.7091
634.371	82.20237
633.887	82.6742
633.406	83.138
632.9231	83.5692
632.44	83.9799
631.959	84.0546
631.475	84.2176
630.992	83.9136
630.511	83.3649
630.027	82.8213
629.544	82.3282
629.0625	81.81356
628.579	81.6848
628.096	81.5343
627.614	82.2872
627.131	83.1688
626.647	84.089
626.163	85.0382
625.682	85.99498
625.198	86.9785
624.7146	87.336
624.233	87.6456
623.749	87.7969
623.2655	87.7809
622.782	87.5822
622.3	87.3372
621.816	86.9911
621.332	86.6065
620.849	86.1637
620.367	85.7096
619.883	85.1528
619.3988	84.56871
618.915	84.07
618.431	83.6148
617.949	83.1652
617.465	82.7072
616.981	82.3286
616.4967	81.9299
616.013	81.5914
615.528	81.3282
615.046	81.0164
614.562	80.63636
614.078	80.6649
613.594	80.7439
613.109	80.9362
612.625	81.08802
612.141	81.29541
611.656	81.5021
611.174	81.7279
610.69	81.9623
610.205	82.1805
609.721	82.4221
609.236	82.6291
608.752	82.86721
608.267	83.0825
607.783	83.3495
607.298	83.2468
606.814	83.1731
606.329	83.11956
605.844	83.0129
605.36	82.8886
604.875	82.7762
604.39	82.6483
603.9054	82.5165
603.421	82.3658
602.936	82.2386
602.451	82.1501
601.966	82.0648
601.4812	82.1297
600.996	82.1774
600.511	82.7216
600.026	82.9985
599.541	83.20459
599.0564	83.325
598.571	83.374
598.0863	83.2474
597.6012	82.6692
597.116	82.1568
596.631	81.5947
596.146	80.993
595.661	80.5005
595.175	79.9748
594.69	79.7653
594.205	79.6011
593.717	79.6048
593.232	79.7033
592.747	80.0162
592.261	80.26593
591.776	80.3931
591.291	80.2294
590.805	79.4544
590.32	78.8366
589.832	78.17588
589.347	77.9325
588.861	77.76667
588.375	77.7847
587.89	77.6225
587.404	77.4421
586.9165	77.1585
586.431	76.9162
585.945	76.7132
585.459	76.5259
584.974	76.3811
584.486	76.3517
584	76.3138
583.5141	76.5136
583.0282	76.6901
582.54	77.151
582.054	77.946
581.568	78.5034
581.082	79.2006
580.594	79.7367
580.1084	80.2118
579.622	80.6637
579.136	80.9005
578.648	81.1431
578.162	81.3628
577.676	81.51461
577.188	81.6837
576.701	81.6777
576.215	81.6918
575.727	81.9916
575.2406	82.2569
574.754	82.5697
574.266	82.8405
573.7796	83.15007
573.293	83.425
572.805	83.7802
572.3183	84.0144
571.832	84.1594
571.343	84.3188
570.857	84.3657
570.368	84.0805
569.882	84.0279
569.395	83.7035
568.906	83.4619
568.42	83.0286
567.931	82.5992
567.444	82.1562
566.958	81.7076
566.469	81.26815
565.982	80.8336
565.493	80.4048
565.006	80.02713
564.517	79.637
564.031	79.4457
563.542	79.5091
563.055	79.6799
562.568	79.8403
562.079	80.0986
561.592	80.4538
561.103	80.7601
560.6156	81.152
560.126	81.5168
559.639	81.9424
559.15	82.3406
558.661	82.7327
558.174	83.1516
557.685	83.3039
557.197	83.5856
556.708	83.7796
556.221	84.0916
555.731	84.2749
555.244	84.67337
554.755	85.0834
554.265	85.4896
553.778	85.9132
553.288	86.337
552.801	86.7594
552.311	87.1271
551.822	87.512
551.334	87.8964
550.844	88.225
550.357	88.54493
549.867	88.7471
549.377	88.9516
548.89	89.0348
548.4	88.8171
547.91	88.8127
547.422	88.7553
546.933	88.7296
546.443	88.7838
545.955	88.7354
545.465	88.6504
544.975	88.658
544.487	88.5526
543.997	88.4933
543.507	88.4641
543.019	88.4935
542.529	88.635
542.039	88.8381
541.549	89.118
541.061	89.5094
540.5705	90.0118
540.08	90.6191
539.59	91.30378
539.102	92.1923
538.612	93.2757
538.121	94.4308
537.631	95.66687
537.141	97.0893
536.652	98.5843
536.1618	100.309
535.671	102.158
535.181	104.1394
534.69	106.295
534.202	108.612
533.711	111.052
533.221	113.602
532.73	116.325
532.24	119.133
531.751	122.105
531.26	124.994
530.77	127.897
530.279	129.824
529.788	132.274
529.297	134.979
528.807	138.051
528.316	141.897
527.8269	147.039
527.336	154.507
526.845	163.1899
526.354	172.867
525.863	209.089
525.372	236.924
524.881	262.714
524.3902	318.79
523.899	388.117
523.408	440.546
522.917	580.2
522.426	773.029
521.935	1033.86
521.443	1371.07
520.952	1758.19
520.461	2105
519.9696	2191
519.478	2061
518.987	1598
518.496	1248
518.004	889
517.513	651.729
517.021	525.388
516.53	417.509
516.038	339.286
515.547	280.306
515.055	244.359
514.564	217.94
514.0722	197.779
513.581	177.055
513.089	164.894
512.597	154.5392
512.106	147.456
511.6138	141.014
511.122	135.69
510.63	131.1888
510.138	127.372
509.645	124.295
509.153	119.6843
508.661	115.828
508.169	112.499
507.677	109.519
507.185	106.6558
506.693	104.362
506.201	102.246
505.707	100.267
505.215	98.4437
504.723	96.6837
504.231	95.1725
503.738	93.7556
503.246	92.51754
502.752	91.3639
502.2598	90.4843
501.768	90.15773
501.275	89.8921
500.783	89.72599
500.289	89.5761
499.796	89.4798
499.3038	89.4157
498.811	89.3308
498.317	89.2936
497.824	89.0614
497.332	88.7887
496.839	88.541
496.345	88.2861
495.852	88.0294
495.36	87.7387
494.867	87.4494
494.372	87.1424
493.88	86.8361
493.3869	86.4934
492.892	86.18589
492.399	85.8567
491.907	85.519
491.412	85.1384
490.919	84.7102
490.426	84.3011
489.931	83.8635
489.438	83.4408
488.945	83.0042
488.45	82.5917
487.957	82.0849
487.464	81.88588
486.969	81.721
486.476	81.6866
485.983	81.9584
485.488	82.0165
484.994	82.196
484.499	82.8018
484.006	82.7314
483.513	82.6086
483.017	82.3074
482.524	82.0332
482.029	81.71991
481.535	81.4104
481.04	81.1369
480.547	80.8679
480.053	80.67
479.558	80.4304
479.064	80.2614
478.569	80.1937
478.075	80.1004
477.58	80.3011
477.086	80.3801
476.59	80.4378
476.097	80.59597
475.601	80.7341
475.107	80.9197
474.611	81.0383
474.118	81.26564
473.622	81.5237
473.128	81.7821
472.6322	82.043
472.138	82.3031
471.6424	82.565
471.146	82.7865
470.653	83.0271
470.156	83.2146
469.663	83.4271
469.166	83.5573
468.672	83.5667
468.1763	83.6034
467.68	83.5585
467.186	83.4802
466.69	83.4195
466.196	83.1551
465.6994	82.7516
465.203	82.4032
464.709	82.1006
464.213	81.7513
463.716	81.4927
463.222	81.2567
462.7254	81.0607
462.231	80.9344
461.735	81.1429
461.238	81.7356
460.744	82.3939
460.247	83.0591
459.75	83.8185
459.254	84.7145
458.759	85.5948
458.263	86.509
457.766	87.4065
457.2713	88.2027
456.775	88.734
456.2778	89.1933
455.783	89.4608
455.286	89.5957
454.7894	89.4721
454.293	89.2035
453.7977	88.6408
453.301	88.02166
452.8038	87.3288
452.307	86.6482
451.81	85.9922
451.315	85.5051
450.818	85.1549
450.321	85.1351
449.824	85.2918
449.329	85.6621
448.831	86.2905
448.334	87.2298
447.837	88.14608
447.34	88.9898
446.842	89.1042
446.347	89.0833
445.85	88.776
445.352	88.1082
444.8551	87.2371
444.3577	85.865
443.86	84.9038
443.363	84.496
442.867	84.3338
442.37	84.4913
441.872	84.6179
441.375	84.7107
440.877	84.9637
440.379	86.1582
439.882	87.1306
439.384	87.2904
438.886	87.2736
438.389	87.1386
437.891	86.8068
437.395	86.39238
436.897	85.9492
436.3996	85.37484
435.902	84.8175
435.404	84.3034
434.906	83.9793
434.408	84.2262
433.91	84.5684
433.412	84.8762
432.914	85.1823
432.416	85.3889
431.918	85.5665
431.42	85.7618
430.922	85.9403
430.4234	86.1372
429.9252	86.3047
429.427	86.4878
428.929	86.64061
428.43	86.79567
427.932	86.9279
427.434	87.0789
426.935	87.2087
426.435	87.3587
425.937	87.4935
425.4382	87.633
424.94	87.7726
424.441	87.8734
423.943	87.9778
423.444	88.0227
422.946	88.0804
422.447	88.093
421.948	88.1159
421.45	88.1159
420.949	88.1028
420.45	88.0748
419.952	88.0406
419.453	88.0094
418.954	87.9587
418.4552	87.93943
417.956	87.86425
417.455	87.7897
416.957	87.74704
416.458	87.8048
415.959	87.9726
415.46	89.25856
414.961	90.9528
414.46	92.9166
413.961	95.49733
413.461	98.6297
412.962	102.398
412.461	106.801
411.962	113.37
411.463	120.3045
410.964	127.627
410.464	136.811
409.963	146.476
409.464	156.481
408.964	166.5587
408.465	176.569
407.964	187.033
407.464	197.5255
406.965	195.204
406.463	190.653
405.964	178.98
405.464	168.491
404.9646	157.319
404.463	147.894
403.963	138.257
403.464	129.883
402.962	122.492
402.462	116.073
401.963	111.1973
401.461	107.1574
400.961	103.669
400.461	100.574
399.959	97.8519
399.46	95.5324
398.958	93.4565
398.4577	92.04174
397.958	90.8437
397.456	89.8476
396.956	89.0524
396.454	88.389
395.954	87.8189
395.454	87.4165
394.951	86.9523
394.451	86.4456
393.9491	86.0193
393.449	85.6262
392.949	85.3483
392.446	85.2276
391.946	85.2589
391.444	85.481
390.944	85.8394
390.441	86.4383
389.941	87.1946
389.438	88.463
388.938	90.0396
388.435	91.4209
387.935	93.7235
387.432	96.97654
386.932	100.46
386.429	104.097
385.929	107.737
385.4259	111.427
384.925	115.04
384.423	118.357
383.922	121.629
383.419	122.777
382.918	123.34
382.4155	122.797
381.915	121.259
381.4118	117.7439
380.909	115.192
380.408	111.789
379.905	107.766
379.404	104.371
378.901	101.075
378.398	98.0762
377.897	95.4496
377.394	93.1753
376.893	92.943
376.39	92.3021
375.886	91.73777
375.385	91.1344
374.882	90.63443
374.379	90.1679
373.877	90.0472
373.374	90.0215
372.871	90.3508
372.369	89.5827
371.866	88.6726
371.363	87.7107
370.861	86.7392
370.3577	85.93354
369.854	85.1569
369.353	84.4642
368.849	83.8142
368.345	83.3382
367.844	82.8918
367.34	82.7302
366.837	82.5808
366.333	82.6161
365.831	82.8089
365.327	83.0698
364.824	83.3179
364.32	83.5068
363.818	83.4787
363.314	82.6125
362.81	81.8614
362.306	81.15023
361.804	80.4714
361.3	79.9771
360.796	79.5622
360.292	79.2199
359.788	78.96846
359.286	78.7881
358.782	78.6893
358.278	78.6767
357.774	78.8034
357.269	78.9477
356.765	79.1894
356.263	79.4703
355.759	79.9763
355.254	80.51165
354.75	81.1177
354.246	81.7476
353.741	82.4113
353.237	83.0792
352.734	83.7498
352.23	84.3732
351.7254	84.9361
351.221	85.162
350.716	85.3883
350.2117	85.4875
349.707	85.2607
349.202	84.9501
348.698	84.5566
348.193	84.1642
347.688	81.8137
347.186	81.4
346.681	81.5999
346.176	81.9712
345.671	82.5942
345.166	83.4626
344.661	84.4737
344.1564	85.5559
343.651	86.7312
343.146	87.9246
342.641	89.35482
342.136	90.5807
341.631	91.3823
341.126	91.3704
340.621	90.7548
340.116	89.9444
339.611	89.1094
339.106	88.2714
338.6	87.3477
338.095	86.3232
337.59	85.2661
337.084	84.1667
336.577	83.1082
336.072	81.9759
335.566	80.937
335.061	79.9532
334.555	79.6316
334.05	79.977
333.544	80.1059
333.039	80.3395
332.5332	80.6415
332.028	81.1183
331.522	81.5717
331.014	82.2014
330.509	82.8277
330.003	83.5711
329.497	84.43383
328.991	85.265
328.486	85.9452
327.98	86.6138
327.474	87.0345
326.966	87.1629
326.46	87.1736
325.9541	87.1445
325.448	87.2211
324.942	87.2906
324.434	87.41938
323.928	87.2959
323.422	86.74398
322.916	85.1788
322.41	84.416
321.902	84.2519
321.395	84.6421
320.889	85.4448
320.383	86.465
319.877	87.503
319.368	88.47506
318.862	89.3285
318.356	89.9894
317.849	88.3984
317.341	88.1344
316.834	87.85923
316.328	87.3037
315.819	86.7122
315.313	86.0367
314.806	85.7076
314.3	85.6948
313.791	85.6207
313.284	85.4094
312.778	85.0535
312.269	84.8927
311.762	84.7788
311.255	84.9403
310.747	85.2936
310.24	86.0246
309.733	86.8141
309.224	87.979
308.717	89.1284
308.2103	90.3065
307.701	91.4119
307.194	92.4851
306.685	93.4136
306.178	94.0568
305.6712	94.6917
305.162	94.96785
304.655	95.1738
304.146	95.0086
303.639	94.56971
303.131	94.0314
302.6221	93.5141
302.115	92.9608
301.6055	92.3814
301.098	92.2013
300.589	91.873
300.081	91.4782
299.5741	91.1144
299.065	90.66172
298.557	90.1445
298.048	89.6753
297.54	89.15168
297.031	88.6702
296.523	88.2023
296.013	87.7548
295.506	87.3849
294.996	87.0285
294.488	86.7662
293.979	86.5275
293.471	86.5377
292.961	86.4464
292.453	86.4114
291.943	86.3822
291.436	86.4583
290.926	86.5941
290.416	86.7938
289.908	87.2703
289.398	87.2569
288.89	87.1038
288.38	86.3146
287.872	85.7731
287.362	85.0796
286.851	84.3701
286.343	83.6802
285.833	83.0386
285.325	82.4692
284.815	81.9341
284.304	81.4452
283.796	80.9474
283.286	80.7267
282.777	80.6542
282.267	80.7176
281.7565	80.894
281.248	81.1871
280.738	81.4989
280.227	81.9191
279.719	82.2582
279.208	82.7984
278.697	83.3109
278.189	83.7451
277.678	84.1798
277.168	84.5596
276.657	84.8353
276.148	84.8879
275.637	84.97718
275.127	84.7686
274.618	84.4101
274.1069	83.6266
273.596	82.8715
273.085	82.0233
272.576	81.19519
272.065	80.39962
271.554	79.5747
271.043	78.8141
270.534	78.0887
270.023	77.6334
269.512	77.3081
269.001	77.104
268.492	77.0609
267.981	77.1697
267.469	77.3099
266.958	77.4977
266.447	77.68779
265.938	77.9032
265.426	78.135
264.915	78.3425
264.403	78.5811
263.892	78.7857
263.381	78.9915
262.871	78.9713
262.36	78.9606
261.848	78.6733
261.337	78.3553
260.825	78.0344
260.313	77.63
259.802	77.2181
259.292	76.78772
258.78	76.3896
258.269	76.0483
257.757	75.6633
257.245	75.4434
256.733	75.5746
256.221	75.5897
255.709	75.8368
255.198	76.15155
254.686	76.4654
254.174	76.8458
253.662	77.18705
253.1517	77.4725
252.64	77.7683
252.128	77.7738
251.615	77.4808
251.103	77.1333
250.591	76.8867
250.079	76.4151
249.567	76.0244
249.054	75.8039
248.542	75.6355
248.03	75.44812
247.518	75.334
247.0052	75.3587
246.493	75.3539
245.98	75.3879
245.468	75.392
244.955	75.4375
244.443	75.4169
243.93	75.3931
243.418	75.3653
242.905	75.3192
242.391	75.2818
241.8779	75.2252
241.365	75.1948
240.853	75.1437
240.34	74.996
239.827	74.9141
239.314	74.80304
238.801	74.7167
238.289	74.6341
237.7757	74.575
237.2628	74.5459
236.748	74.5469
236.2348	74.5739
235.722	74.614
235.2088	74.72541
234.696	74.8903
234.183	75.4041
233.67	75.7624
233.154	76.4119
232.641	76.9485
232.128	77.3975
231.615	77.6337
231.102	77.2689
230.588	77.03389
230.073	76.8991
229.56	76.7173
229.046	76.4868
228.533	76.2058
228.019	75.8238
227.504	75.2907
226.99	74.6418
226.477	73.9362
225.963	73.1591
225.45	72.6675
224.9341	72.3881
224.42	72.1875
223.907	71.9844
223.393	71.7002
222.877	71.4979
222.364	71.3431
221.85	71.3105
221.334	71.1469
220.82	71.2629
220.306	71.4638
219.792	71.66
219.276	71.9359
218.763	72.1249
218.2486	72.4158
217.7325	72.6313
217.218	72.5912
216.704	72.3156
216.188	72.1228
215.674	71.8349
215.16	71.474
214.6438	71.04287
214.13	70.7163
213.6154	70.3546
213.099	70.2116
212.585	70.17
212.07	70.28656
211.554	70.4738
211.0397	70.5582
210.523	70.6312
210.0088	70.6783
209.494	70.7086
208.978	70.66523
208.463	70.57431
207.947	70.4277
207.4321	69.84359
206.918	69.2465
206.4008	68.6339
205.886	68.0327
205.369	67.4555
204.855	66.9086
204.338	66.4801
203.8231	66.1248
203.306	66.2754
202.791	66.4115
202.277	66.7873
201.7596	67.2843
201.245	67.9372
200.728	68.6422
200.213	69.41909
199.696	70.18084
199.1806	70.83979
198.663	71.0525
198.148	70.8052
197.631	70.9409
197.114	71.1214
196.5988	70.9642
196.0815	70.544
195.5663	70.3266
195.049	70.0471
194.534	69.838
194.016	69.3645
193.501	68.6513
192.983	68.13
192.468	67.98867
191.951	67.9496
191.433	67.9364
190.918	67.9897
190.4	68.0563
189.884	68.1558
189.367	68.2497
188.849	68.3388
188.333	68.3674
187.816	68.509
187.3	68.4498
186.782	68.36985
186.264	68.2888
185.749	68.169
185.231	68.0695
184.7128	67.8979
184.197	67.7872
183.679	67.5938
183.161	67.2448
182.645	67.2104
182.127	67.1588
181.609	67.1336
181.093	67.12616
180.575	67.1087
180.057	67.1247
179.54	67.24559
179.022	67.3235
178.504	67.39994
177.986	67.4213
177.469	67.4395
176.951	67.3953
176.433	67.4195
175.914	67.33625
175.3979	67.2252
174.879	67.0599
174.361	66.8091
173.842	66.3014
173.326	65.9139
172.807	65.5578
172.289	65.1917
171.77	64.8421
171.254	64.467
170.735	64.2338
170.216	64.0176
169.697	63.78717
169.179	64.1266
168.662	64.599
168.143	64.9743
167.624	65.475
167.105	66.0035
166.586	66.5571
166.067	67.0968
165.55	67.2884
165.031	67.21
164.512	67.12233
163.9933	67.0455
163.4742	66.7095
162.955	66.3723
162.4359	66.2315
161.9167	66.12352
161.3996	65.9939
160.88	65.9187
160.361	65.8179
159.842	65.8964
159.3224	65.9258
158.803	65.9727
158.284	66.00946
157.764	66.096
157.245	66.2223
156.725	66.2831
156.206	66.3442
155.686	66.3901
155.169	66.4261
154.649	66.4724
154.13	66.4943
153.61	66.5396
153.09	66.4888
152.57	66.4944
152.051	66.51886
151.531	66.5274
151.011	66.5448
150.491	66.5419
149.971	66.519
149.452	66.53537
148.932	66.4203
148.412	66.4758
147.892	66.5034
147.372	66.5468
146.8517	66.6278
146.332	66.6846
145.812	66.7618
145.289	66.9338
144.769	67.0208
144.249	67.0798
143.729	67.11409
143.209	67.1016
142.688	67.08
142.168	66.9891
141.648	66.862
141.127	66.3246
140.607	65.9202
140.086	65.3548
139.566	64.6328
139.046	63.5234
138.523	61.1436
138.002	58.617