File: bartels lab/3642 MoS2 on 1012 WG/raman1_dominic/R2_C1/3642 R2C1 waveguide 2940x 4380y Raman 1800 t2 d1 100x.txt
650.268	97.7088
649.786	99.0667
649.306	99.875
648.823	100.6739
648.343	101.828
647.863	102.803
647.38	103.5663
646.9	103.427
646.417	103.041
645.937	102.627
645.4541	102.296
644.974	102.043
644.491	101.924
644.01	101.942
643.528	102.157
643.047	102.557
642.564	103.096
642.084	103.764
641.601	104.501
641.12	105.222
640.637	105.819
640.156	106.29
639.674	106.55
639.193	106.598
638.71	106.371
638.227	105.763
637.746	104.897
637.263	103.755
636.782	102.329
636.299	100.76
635.818	99.3625
635.335	98.3906
634.852	97.8657
634.371	97.6111
633.887	98.3698
633.406	99.2319
632.9231	100.064
632.44	100.863
631.959	101.619
631.475	102.294
630.992	102.852
630.511	103.264
630.027	103.5754
629.544	103.886
629.0625	103.963
628.579	103.992
628.096	103.959
627.614	103.906
627.131	103.823
626.647	103.709
626.163	103.578
625.682	103.442
625.198	103.311
624.7146	103.282
624.233	103.52
623.749	103.721
623.2655	103.974
622.782	104.32
622.3	104.607
621.816	104.883
621.332	105.129
620.849	105.371
620.367	105.562
619.883	105.697
619.3988	105.6231
618.915	105.56
618.431	105.456
617.949	105.316
617.465	105.137
616.981	104.891
616.4967	104.492
616.013	103.9278
615.528	103.094
615.046	102.393
614.562	101.908
614.078	101.439
613.594	101.084
613.109	100.823
612.625	100.685
612.141	100.68
611.656	100.878
611.174	101.291
610.69	101.704
610.205	102.002
609.721	102.346
609.236	102.822
608.752	103.1977
608.267	103.55
607.783	103.494
607.298	103.891
606.814	103.387
606.329	100.973
605.844	99.2271
605.36	98.0808
604.875	97.5928
604.39	95.6594
603.9054	99.3492
603.421	103.89
602.936	111.36
602.451	106.954
601.966	106.297
601.4812	104.438
600.996	104.42
600.511	103.193
600.026	106.502
599.541	104.875
599.0564	103.624
598.571	102.169
598.0863	100.408
597.6012	98.4692
597.116	97.2298
596.631	96.317
596.146	95.7891
595.661	95.8671
595.175	98.5924
594.69	99.2717
594.205	100.0108
593.717	100.677
593.232	101.191
592.747	101.559
592.261	101.67
591.776	101.31
591.291	99.92363
590.805	99.3484
590.32	100.575
589.832	101.188
589.347	102.46
588.861	102.44
588.375	102.131
587.89	101.701
587.404	99.1407
586.9165	97.607
586.431	96.4292
585.945	96.0828
585.459	95.9625
584.974	95.7484
584.486	95.4726
584	95.88
583.5141	96.4509
583.0282	97.063
582.54	97.6136
582.054	97.9111
581.568	98.068
581.082	98.027
580.594	97.799
580.1084	97.3525
579.622	96.74131
579.136	95.9743
578.648	95.2212
578.162	94.7414
577.676	94.4467
577.188	94.3679
576.701	94.6109
576.215	95.1039
575.727	95.6587
575.2406	96.1827
574.754	96.8238
574.266	97.6493
573.7796	98.6951
573.293	100.022
572.805	101.369
572.3183	102.226
571.832	102.505
571.343	102.477
570.857	102.4319
570.368	102.174
569.882	101.609
569.395	100.7548
568.906	98.9371
568.42	98.9562
567.931	99.5037
567.444	100.212
566.958	100.863
566.469	101.137
565.982	101.04
565.493	98.5799
565.006	97.6538
564.517	97.5804
564.031	98.1067
563.542	98.6561
563.055	99.1569
562.568	99.612
562.079	100.0233
561.592	100.277
561.103	100.526
560.6156	100.71
560.126	100.75
559.639	100.845
559.15	100.538
558.661	100.193
558.174	99.8304
557.685	99.4694
557.197	99.1232
556.708	98.7705
556.221	98.4505
555.731	98.1566
555.244	97.9443
554.755	97.6391
554.265	97.66037
553.778	97.9205
553.288	98.2472
552.801	98.5693
552.311	98.9884
551.822	99.4368
551.334	99.92334
550.844	100.421
550.357	100.956
549.867	101.511
549.377	102.078
548.89	102.674
548.4	103.264
547.91	103.887
547.422	104.49
546.933	105.126
546.443	105.585
545.955	106.133
545.465	106.6796
544.975	107.222
544.487	107.767
543.997	108.328
543.507	108.873
543.019	109.4306
542.529	109.976
542.039	110.531
541.549	111.0746
541.061	111.627
540.5705	112.165
540.08	112.703
539.59	113.246
539.102	113.776
538.612	114.313
538.121	114.8329
537.631	115.353
537.141	115.856
536.652	116.368
536.1618	116.873
535.671	117.4434
535.181	118.123
534.69	118.914
534.202	121.138
533.711	122.497
533.221	125.01
532.73	128.496
532.24	131.74
531.751	134.835
531.26	135.959
530.77	139.606
530.279	143.235
529.788	148.262
529.297	154.461
528.807	162.281
528.316	171.81
527.8269	183.516
527.336	196.98
526.845	214.331
526.354	235.429
525.863	260.401
525.372	288.088
524.881	324.16
524.3902	364.507
523.899	420.58
523.408	528.206
522.917	689.529
522.426	915.6
521.935	1167.79
521.443	1659
520.952	2028
520.461	2405
519.9696	2400
519.478	2175
518.987	1739.92
518.496	1293.34
518.004	958.619
517.513	724.105
517.021	572.274
516.53	475.211
516.038	370.101
515.547	324.0813
515.055	290.033
514.564	263.483
514.0722	237.68
513.581	212.318
513.089	193.664
512.597	180.848
512.106	169.4032
511.6138	159.65
511.122	153.348
510.63	148.724
510.138	144.882
509.645	141.268
509.153	138.406
508.661	134.784
508.169	129.479
507.677	126.34
507.185	123.859
506.693	122.799
506.201	121.842
505.707	120.969
505.215	120.026
504.723	119.4
504.231	118.791
503.738	118.203
503.246	117.611
502.752	117.02
502.2598	116.434
501.768	115.808
501.275	114.814
500.783	113.768
500.289	112.736
499.796	111.6088
499.3038	110.56
498.811	109.5475
498.317	108.575
497.824	107.661
497.332	106.795
496.839	106.077
496.345	105.426
495.852	104.807
495.36	104.209
494.867	103.594
494.372	103.0048
493.88	102.439
493.3869	101.899
492.892	101.39
492.399	100.9284
491.907	100.535
491.412	100.206
490.919	99.9789
490.426	99.833
489.931	99.783
489.438	99.8205
488.945	99.9525
488.45	100.495
487.957	100.978
487.464	101.507
486.969	102.015
486.476	102.504
485.983	102.872
485.488	102.679
484.994	101.9087
484.499	101.109
484.006	100.322
483.513	99.597
483.017	99.2883
482.524	99.1542
482.029	99.2087
481.535	99.3937
481.04	99.6836
480.547	99.99707
480.053	100.639
479.558	101.227
479.064	101.699
478.569	102.005
478.075	101.661
477.58	101.027
477.086	100.111
476.59	98.9052
476.097	97.5051
475.601	96.1705
475.107	95.16
474.611	94.4956
474.118	94.209
473.622	94.3194
473.128	94.7896
472.6322	95.7103
472.138	97.2784
471.6424	98.9083
471.146	100.2578
470.653	101.32
470.156	102.094
469.663	102.557
469.166	102.726
468.672	102.59
468.1763	102.137
467.68	101.101
467.186	100.009
466.69	98.9121
466.196	97.8516
465.6994	97.1484
465.203	96.5594
464.709	96.0644
464.213	95.9072
463.716	95.6427
463.222	96.0466
462.7254	96.6756
462.231	97.2797
461.735	98.0975
461.238	98.9556
460.744	99.81871
460.247	100.6451
459.75	101.408
459.254	102.112
458.759	102.7808
458.263	103.424
457.766	104.0126
457.2713	104.558
456.775	105.048
456.2778	105.482
455.783	105.7834
455.286	105.841
454.7894	105.806
454.293	105.668
453.7977	105.438
453.301	105.239
452.8038	105.016
452.307	104.8077
451.81	104.63
451.315	104.474
450.818	104.949
450.321	105.355
449.824	105.775
449.329	106.158
448.831	106.521
448.334	106.842
447.837	107.081
447.34	107.22
446.842	107.174
446.347	106.569
445.85	105.901
445.352	105.201
444.8551	104.5205
444.3577	103.921
443.86	103.389
443.363	102.974
442.867	102.976
442.37	103.441
441.872	103.979
441.375	104.568
440.877	105.161
440.379	105.7166
439.882	106.255
439.384	106.661
438.886	106.836
438.389	106.76
437.891	106.651
437.395	106.398
436.897	106.061
436.3996	105.5965
435.902	105.143
435.404	104.403
434.906	103.638
434.408	102.882
433.91	102.125
433.412	101.478
432.914	101.137
432.416	101.05
431.918	101.203
431.42	101.845
430.922	102.387
430.4234	102.814
429.9252	103.296
429.427	103.22
428.929	104.0807
428.43	103.852
427.932	103.384
427.434	102.296
426.935	100.827
426.435	98.3274
425.937	96.8147
425.4382	96.8105
424.94	96.9757
424.441	97.2731
423.943	97.60881
423.444	97.919
422.946	98.3578
422.447	98.6707
421.948	98.9412
421.45	99.1726
420.949	99.4412
420.45	99.67263
419.952	99.9737
419.453	100.29
418.954	100.66
418.4552	101.083
417.956	101.547
417.455	102.087
416.957	102.661
416.458	103.342
415.959	104.053
415.46	104.94
414.961	105.878
414.46	106.916
413.961	107.971
413.461	109.104
412.962	110.236
412.461	111.384
411.962	112.403
411.463	112.797
410.964	115.746
410.464	118.651
409.963	126.508
409.464	135.15
408.964	144.555
408.465	154.6817
407.964	165.73
407.464	173.3165
406.965	177.121
406.463	178.166
405.964	177.581
405.464	175.241
404.9646	171.391
404.463	166.1409
403.963	159.369
403.464	152.602
402.962	145.781
402.462	138.89
401.963	131.733
401.461	124.628
400.961	120.484
400.461	116.344
399.959	112.461
399.46	108.866
398.958	105.505
398.4577	102.788
397.958	100.783
397.456	99.8012
396.956	98.9346
396.454	98.7101
395.954	98.6019
395.454	98.5896
394.951	98.5129
394.451	98.6194
393.9491	98.5722
393.449	98.2563
392.949	98.0551
392.446	97.963
391.946	98.0205
391.444	98.2788
390.944	98.7359
390.441	99.4483
389.941	100.437
389.438	101.75
388.938	103.381
388.435	105.217
387.935	107.268
387.432	109.464
386.932	111.826
386.429	114.51
385.929	116.979
385.4259	118.496
384.925	119.755
384.423	120.655
383.922	121.212
383.419	121.417
382.918	121.272
382.4155	120.803
381.915	120.02
381.4118	118.647
380.909	117.027
380.408	115.192
379.905	113.21
379.404	111.289
378.901	110.023
378.398	108.8392
377.897	107.646
377.394	106.354
376.893	105.068
376.39	103.526
375.886	102.053
375.385	100.774
374.882	99.6813
374.379	98.887
373.877	98.9254
373.374	99.0255
372.871	99.159
372.369	99.3067
371.866	99.4115
371.363	99.155
370.861	98.8959
370.3577	98.61779
369.854	98.3069
369.353	97.9697
368.849	97.599
368.345	97.2948
367.844	96.6766
367.34	96.0593
366.837	95.4956
366.333	94.9763
365.831	94.5933
365.327	94.5032
364.824	94.8854
364.32	95.4558
363.818	96.0466
363.314	96.60321
362.81	97.1359
362.306	97.58934
361.804	97.6506
361.3	97.5037
360.796	97.27845
360.292	97.0604
359.788	96.4786
359.286	95.8612
358.782	95.1708
358.278	94.4431
357.774	93.7101
357.269	93.0405
356.765	92.3784
356.263	92.0835
355.759	91.8061
355.254	91.661
354.75	91.5004
354.246	91.7431
353.741	91.9935
353.237	92.2081
352.734	92.4217
352.23	92.5754
351.7254	92.3698
351.221	91.8516
350.716	91.3327
350.2117	90.8477
349.707	90.4326
349.202	90.12796
348.698	89.9808
348.193	90.2361
347.688	90.6156
347.186	91.1355
346.681	91.77623
346.176	92.5354
345.671	93.4106
345.166	94.3846
344.661	95.4569
344.1564	96.7847
343.651	98.09301
343.146	99.2946
342.641	100.283
342.136	101.141
341.631	101.547
341.126	101.953
340.621	102.2411
340.116	102.4451
339.611	102.463
339.106	102.564
338.6	102.249
338.095	101.851
337.59	101.304
337.084	100.639
336.577	99.8759
336.072	99.0528
335.566	98.2061
335.061	97.3506
334.555	96.53
334.05	95.6828
333.544	95.1356
333.039	94.5331
332.5332	93.986
332.028	93.8641
331.522	94.2503
331.014	95.3154
330.509	96.3459
330.003	97.4604
329.497	98.21917
328.991	98.8668
328.486	99.3402
327.98	99.4915
327.474	99.2839
326.966	98.8117
326.46	97.52076
325.9541	97.7972
325.448	97.2014
324.942	96.65387
324.434	96.2293
323.928	95.9521
323.422	95.8572
322.916	95.974
322.41	96.1807
321.902	96.3724
321.395	96.6025
320.889	96.8634
320.383	97.1242
319.877	97.2836
319.368	97.3674
318.862	97.4135
318.356	97.4587
317.849	97.4699
317.341	97.4575
316.834	97.2304
316.328	97.3924
315.819	97.5992
315.313	97.8605
314.806	98.2189
314.3	98.4224
313.791	98.7113
313.284	98.7358
312.778	98.7182
312.269	98.4406
311.762	98.2591
311.255	98.1348
310.747	98.0692
310.24	98.07032
309.733	98.13501
309.224	98.2874
308.717	98.5391
308.2103	98.9305
307.701	99.4521
307.194	100.153
306.685	100.932
306.178	101.722
305.6712	102.563
305.162	103.4157
304.655	104.323
304.146	105.464
303.639	107.073
303.131	111.907
302.6221	108.848
302.115	109.1216
301.6055	109.241
301.098	109.12
300.589	108.761
300.081	108.064
299.5741	107.3138
299.065	106.345
298.557	105.413
298.048	104.204
297.54	102.994
297.031	101.855
296.523	100.7984
296.013	99.887
295.506	99.2669
294.996	98.4829
294.488	98.9041
293.979	99.4389
293.471	99.9035
292.961	100.3
292.453	100.583
291.943	100.702
291.436	100.881
290.926	100.302
290.416	99.6199
289.908	98.9305
289.398	98.1438
288.89	97.4094
288.38	96.6208
287.872	95.7415
287.362	95.1341
286.851	94.74733
286.343	94.3923
285.833	94.1399
285.325	93.9337
284.815	93.8008
284.304	93.6699
283.796	93.595
283.286	93.5226
282.777	93.48671
282.267	93.4597
281.7565	93.4506
281.248	93.4592
280.738	93.46904
280.227	93.5063
279.719	93.53183
279.208	93.59333
278.697	93.5202
278.189	93.5428
277.678	93.5916
277.168	93.6251
276.657	93.7058
276.148	93.7669
275.637	93.8547
275.127	93.9618
274.618	94.0531
274.1069	94.3661
273.596	94.6298
273.085	94.93605
272.576	95.1948
272.065	95.4435
271.554	95.6502
271.043	95.7784
270.534	95.8549
270.023	95.3215
269.512	94.6687
269.001	93.8386
268.492	92.8086
267.981	91.6139
267.469	90.31118
266.958	88.8941
266.447	87.4756
265.938	87.048
265.426	86.57563
264.915	86.2389
264.403	85.9633
263.892	86.3628
263.381	86.8923
262.871	87.4914
262.36	88.1997
261.848	88.7875
261.337	89.3433
260.825	89.5303
260.313	89.485
259.802	89.4597
259.292	89.4083
258.78	89.3341
258.269	89.2153
257.757	89.0627
257.245	88.826
256.733	88.7833
256.221	88.8168
255.709	88.9506
255.198	89.0992
254.686	89.24353
254.174	89.3695
253.662	89.50441
253.1517	89.6395
252.64	89.7521
252.128	89.9055
251.615	89.62867
251.103	89.3459
250.591	88.725
250.079	88.1735
249.567	87.6407
249.054	87.1518
248.542	86.6484
248.03	86.2704
247.518	85.79808
247.0052	85.9521
246.493	86.1175
245.98	86.32502
245.468	86.557
244.955	86.7971
244.443	87.0734
243.93	87.3524
243.418	87.642
242.905	87.877
242.391	88.1099
241.8779	88.3217
241.365	88.1659
240.853	87.9887
240.34	87.8169
239.827	87.6014
239.314	87.3921
238.801	87.188
238.289	87.0081
237.7757	86.8347
237.2628	86.6708
236.748	86.5259
236.2348	86.3634
235.722	86.4174
235.2088	86.4685
234.696	86.868
234.183	87.1115
233.67	87.4549
233.154	87.7796
232.641	88.1051
232.128	88.4133
231.615	88.7161
231.102	88.9872
230.588	89.2425
230.073	89.1751
229.56	89.2173
229.046	89.281
228.533	89.3547
228.019	89.4232
227.504	89.4854
226.99	89.5479
226.477	89.5787
225.963	89.9074
225.45	89.7616
224.9341	88.2635
224.42	86.6951
223.907	85.2632
223.393	83.9694
222.877	82.8316
222.364	82.0007
221.85	81.3248
221.334	81.0328
220.82	80.85025
220.306	81.0148
219.792	81.6759
219.276	82.3096
218.763	83.1007
218.2486	83.70813
217.7325	84.1949
217.218	83.8277
216.704	83.8017
216.188	83.2768
215.674	82.669
215.16	82.0329
214.6438	81.3646
214.13	80.6895
213.6154	80.0288
213.099	79.3955
212.585	78.8227
212.07	78.32943
211.554	77.91
211.0397	77.6372
210.523	77.4736
210.0088	77.4267
209.494	77.42485
208.978	77.5956
208.463	77.7721
207.947	78.0535
207.4321	78.3885
206.918	78.7383
206.4008	79.0864
205.886	79.33374
205.369	78.8778
204.855	78.1865
204.338	77.6741
203.8231	77.2148
203.306	76.9052
202.791	76.7805
202.277	76.75647
201.7596	76.6954
201.245	77.0518
200.728	77.4414
200.213	77.8227
199.696	78.212
199.1806	78.5859
198.663	78.9124
198.148	79.1498
197.631	79.191
197.114	78.8168
196.5988	78.4989
196.0815	78.1641
195.5663	77.81768
195.049	77.4643
194.534	77.119
194.016	76.78434
193.501	76.4624
192.983	76.1823
192.468	75.6831
191.951	75.77874
191.433	75.9321
190.918	76.1446
190.4	76.3991
189.884	76.6358
189.367	76.9601
188.849	77.0927
188.333	77.2229
187.816	77.30835
187.3	77.3709
186.782	77.2433
186.264	77.20356
185.749	77.1505
185.231	77.0874
184.7128	77.0055
184.197	76.9087
183.679	76.8017
183.161	76.6744
182.645	76.52961
182.127	76.3132
181.609	76.2723
181.093	76.2687
180.575	76.2838
180.057	76.3161
179.54	76.3747
179.022	76.4437
178.504	76.5181
177.986	76.5958
177.469	76.6796
176.951	76.7487
176.433	76.8195
175.914	76.8447
175.3979	76.9482
174.879	76.947
174.361	76.79287
173.842	76.6024
173.326	76.0729
172.807	75.6447
172.289	75.2338
171.77	74.8876
171.254	74.5598
170.735	74.261
170.216	73.8653
169.697	73.7229
169.179	73.6106
168.662	73.54686
168.143	73.5257
167.624	73.816
167.105	73.9662
166.586	74.0982
166.067	74.2168
165.55	74.3512
165.031	74.4801
164.512	74.6013
163.9933	74.7108
163.4742	74.8022
162.955	74.8685
162.4359	74.933
161.9167	74.9897
161.3996	75.047
160.88	75.10125
160.361	75.1349
159.842	75.147
159.3224	75.1327
158.803	75.0219
158.284	75.0295
157.764	75.0464
157.245	75.0734
156.725	75.0928
156.206	75.1179
155.686	75.1432
155.169	75.1684
154.649	75.1921
154.13	75.2211
153.61	75.2449
153.09	75.4647
152.57	75.3655
152.051	75.2699
151.531	75.1633
151.011	75.04847
150.491	74.9387
149.971	74.8125
149.452	74.6787
148.932	74.4324
148.412	74.3631
147.892	74.3087
147.372	74.2935
146.8517	74.3442
146.332	74.4099
145.812	74.7478
145.289	75.08387
144.769	75.4326
144.249	75.801
143.729	76.178
143.209	76.56675
142.688	76.9589
142.168	77.3487
141.648	77.7284
141.127	78.0758
140.607	78.41407
140.086	78.39566
139.566	78.3612
139.046	78.0168
138.523	76.7222
138.002	74.5572