File: bartels lab/3642 MoS2 on 1012 WG/raman1_dominic/R2_C1/3642 R2C1 waveguide 2983x 4347y Raman 1800 t2 d1 100x.txt
650.268	70.37619
649.786	70.7534
649.306	69.9267
648.823	71.5642
648.343	72.743
647.863	74.6319
647.38	78.63073
646.9	78.7691
646.417	78.293
645.937	77.3113
645.4541	76.2954
644.974	75.1937
644.491	74.0398
644.01	72.77903
643.528	71.56105
643.047	70.7928
642.564	70.34996
642.084	70.5699
641.601	70.5673
641.12	70.9628
640.637	71.4537
640.156	72.1462
639.674	72.8572
639.193	73.0373
638.71	73.6874
638.227	74.5139
637.746	75.2119
637.263	75.76281
636.782	76.1226
636.299	76.263
635.818	76.2076
635.335	75.9543
634.852	75.5662
634.371	75.0651
633.887	74.5366
633.406	73.9268
632.9231	73.3419
632.44	73.6366
631.959	74.2716
631.475	74.5767
630.992	74.8888
630.511	75.1832
630.027	75.52
629.544	75.8607
629.0625	76.2416
628.579	76.6064
628.096	77.0214
627.614	77.3254
627.131	77.0535
626.647	76.7231
626.163	75.7671
625.682	75.3922
625.198	75.0404
624.7146	74.8056
624.233	74.5558
623.749	74.2722
623.2655	74.0934
622.782	74.0499
622.3	74.2898
621.816	74.7747
621.332	75.0477
620.849	74.6036
620.367	74.7036
619.883	74.8782
619.3988	74.9561
618.915	75.3712
618.431	75.9686
617.949	76.5526
617.465	77.0846
616.981	77.5373
616.4967	77.8378
616.013	77.9247
615.528	77.88562
615.046	77.6617
614.562	76.8219
614.078	76.4062
613.594	76.1946
613.109	76.1512
612.625	76.2141
612.141	76.3492
611.656	76.6199
611.174	76.6789
610.69	76.9306
610.205	77.4995
609.721	77.5365
609.236	77.8571
608.752	78.176
608.267	78.388
607.783	78.4674
607.298	78.3652
606.814	78.1064
606.329	77.6917
605.844	77.1498
605.36	76.4922
604.875	75.79274
604.39	75.192
603.9054	74.9352
603.421	74.737
602.936	74.6345
602.451	74.5377
601.966	74.3738
601.4812	74.1681
600.996	74.2851
600.511	74.1049
600.026	73.8303
599.541	73.5055
599.0564	73.0441
598.571	72.8622
598.0863	72.8228
597.6012	72.7526
597.116	72.72699
596.631	72.7975
596.146	73.1021
595.661	73.7388
595.175	74.4404
594.69	74.945
594.205	75.5508
593.717	76.0793
593.232	76.5098
592.747	76.739
592.261	76.6554
591.776	76.4075
591.291	76.4986
590.805	76.4909
590.32	76.2003
589.832	75.5273
589.347	74.9061
588.861	74.5474
588.375	74.2947
587.89	74.1819
587.404	74.2301
586.9165	74.3992
586.431	74.7234
585.945	75.1825
585.459	74.9764
584.974	74.6229
584.486	74.3108
584	74.09417
583.5141	73.8517
583.0282	73.0007
582.54	72.2773
582.054	71.7633
581.568	71.6023
581.082	71.4927
580.594	71.3994
580.1084	71.3811
579.622	71.5034
579.136	71.6909
578.648	72.0294
578.162	72.5457
577.676	73.1243
577.188	73.5025
576.701	73.674
576.215	73.854
575.727	73.8529
575.2406	73.4603
574.754	73.042
574.266	72.9254
573.7796	73.0214
573.293	73.239
572.805	73.1596
572.3183	73.1831
571.832	73.2342
571.343	73.2728
570.857	73.1011
570.368	73.0349
569.882	73.1867
569.395	73.5246
568.906	73.9611
568.42	74.4797
567.931	74.85862
567.444	75.04348
566.958	75.0729
566.469	74.945
565.982	74.6087
565.493	74.1484
565.006	74.0535
564.517	74.5501
564.031	74.7804
563.542	74.7043
563.055	74.8023
562.568	75.1586
562.079	75.5518
561.592	75.9486
561.103	76.2411
560.6156	76.5077
560.126	76.7294
559.639	76.8684
559.15	76.9732
558.661	76.7711
558.174	76.618
557.685	76.5238
557.197	76.4567
556.708	76.3655
556.221	76.3393
555.731	76.5179
555.244	76.963
554.755	77.1694
554.265	77.3549
553.778	77.6009
553.288	77.4122
552.801	76.9511
552.311	76.5857
551.822	76.3474
551.334	76.1836
550.844	76.07312
550.357	76.0458
549.867	76.111
549.377	76.2749
548.89	76.5775
548.4	77.0883
547.91	77.8246
547.422	78.5621
546.933	79.3854
546.443	80.6943
545.955	82.0579
545.465	83.6721
544.975	83.6114
544.487	83.2496
543.997	82.5732
543.507	81.8267
543.019	81.5163
542.529	81.1062
542.039	80.9644
541.549	81.21759
541.061	81.8465
540.5705	82.7668
540.08	85.0859
539.59	86.48996
539.102	86.8538
538.612	87.7904
538.121	88.9408
537.631	90.0138
537.141	91.1324
536.652	92.2075
536.1618	93.1494
535.671	93.927
535.181	95.07
534.69	95.7107
534.202	97.0822
533.711	98.9952
533.221	101.029
532.73	102.978
532.24	105.132
531.751	109.029
531.26	111.3235
530.77	114.0765
530.279	115.792
529.788	115.812
529.297	127.248
528.807	143.614
528.316	151.069
527.8269	155.692
527.336	160.333
526.845	167.6
526.354	180.327
525.863	196.589
525.372	230.171
524.881	263.249
524.3902	306.221
523.899	365.673
523.408	476.167
522.917	617.411
522.426	800.574
521.935	1013.62
521.443	1352
520.952	1804.38
520.461	2101.85
519.9696	2150.43
519.478	1953.25
518.987	1550.23
518.496	1218
518.004	886.7486
517.513	681.235
517.021	527.055
516.53	412.22
516.038	337.905
515.547	285.414
515.055	246.739
514.564	218.815
514.0722	194.225
513.581	176.023
513.089	159.851
512.597	159.998
512.106	140.812
511.6138	133.092
511.122	127.556
510.63	123.873
510.138	118.508
509.645	114.861
509.153	111.7542
508.661	109.123
508.169	105.457
507.677	103.3923
507.185	101.599
506.693	99.8857
506.201	98.3496
505.707	97.1857
505.215	95.6244
504.723	93.8378
504.231	92.0914
503.738	90.4163
503.246	88.9546
502.752	87.6381
502.2598	86.6105
501.768	85.65419
501.275	84.9863
500.783	84.3772
500.289	83.8732
499.796	83.587
499.3038	83.2409
498.811	83.2357
498.317	83.2842
497.824	83.3839
497.332	83.4845
496.839	83.5525
496.345	83.6068
495.852	83.6851
495.36	83.6605
494.867	83.2869
494.372	82.6255
493.88	81.9934
493.3869	81.3533
492.892	80.5916
492.399	79.88739
491.907	79.1759
491.412	78.45607
490.919	77.7674
490.426	77.0546
489.931	76.409
489.438	76.0439
488.945	75.6199
488.45	75.2559
487.957	74.9061
487.464	74.6376
486.969	74.3832
486.476	74.18206
485.983	74.1309
485.488	73.918
484.994	73.8884
484.499	73.8797
484.006	74.02623
483.513	74.3744
483.017	74.8926
482.524	75.6516
482.029	76.7158
481.535	78.6092
481.04	79.3691
480.547	80.5506
480.053	81.014
479.558	81.0377
479.064	80.5479
478.569	79.51429
478.075	78.8125
477.58	77.442
477.086	76.3963
476.59	75.5319
476.097	74.8364
475.601	74.2184
475.107	73.7556
474.611	73.4457
474.118	73.4325
473.622	74.7189
473.128	76.7743
472.6322	77.3118
472.138	77.832
471.6424	78.0717
471.146	78.0658
470.653	78.0824
470.156	77.8107
469.663	77.3304
469.166	76.6868
468.672	76.5146
468.1763	75.91748
467.68	75.7607
467.186	75.7839
466.69	76.0766
466.196	76.6889
465.6994	78.2828
465.203	78.9723
464.709	79.7732
464.213	80.5158
463.716	81.20137
463.222	81.7982
462.7254	82.2942
462.231	82.636
461.735	82.8745
461.238	83.03746
460.744	83.1261
460.247	83.1535
459.75	83.1753
459.254	83.1825
458.759	83.2544
458.263	83.37851
457.766	84.1062
457.2713	84.8283
456.775	85.6029
456.2778	86.3561
455.783	87.1339
455.286	89.008
454.7894	89.8602
454.293	90.1694
453.7977	90.2168
453.301	89.9358
452.8038	89.4808
452.307	88.7004
451.81	87.0499
451.315	86.0502
450.818	84.6415
450.321	83.6435
449.824	82.8282
449.329	82.3485
448.831	81.8726
448.334	82.0733
447.837	82.9432
447.34	84.5524
446.842	86.2885
446.347	87.0289
445.85	87.5049
445.352	87.9138
444.8551	87.8896
444.3577	87.3334
443.86	87.127
443.363	85.9742
442.867	85.8551
442.37	85.9113
441.872	85.7338
441.375	85.9975
440.877	86.409
440.379	87.8772
439.882	88.6362
439.384	89.3226
438.886	89.8086
438.389	89.9865
437.891	89.8588
437.395	89.1881
436.897	87.1424
436.3996	86.1748
435.902	85.2846
435.404	84.4047
434.906	83.69249
434.408	84.4702
433.91	83.6523
433.412	82.9101
432.914	82.3716
432.416	81.957
431.918	81.5751
431.42	81.57798
430.922	81.8008
430.4234	82.6127
429.9252	83.1179
429.427	83.7688
428.929	84.4151
428.43	84.7026
427.932	84.7776
427.434	84.3415
426.935	84.2721
426.435	84.2267
425.937	84.2584
425.4382	84.0687
424.94	83.535
424.441	83.35743
423.943	83.3143
423.444	83.3566
422.946	83.4215
422.447	83.4895
421.948	83.548
421.45	83.65519
420.949	83.8368
420.45	84.1482
419.952	84.6924
419.453	85.6246
418.954	86.1001
418.4552	86.0986
417.956	86.414
417.455	86.5928
416.957	87.4182
416.458	87.8169
415.959	88.8704
415.46	90.1713
414.961	91.049
414.46	92.6449
413.961	94.6854
413.461	96.3362
412.962	98.6978
412.461	101.8
411.962	105.73
411.463	111.271
410.964	118.0996
410.464	127.1086
409.963	135.016
409.464	149.816
408.964	165.549
408.465	184.717
407.964	200.091
407.464	212.943
406.965	220.817
406.463	225.174
405.964	222.154
405.464	210.73
404.9646	199.986
404.463	186.833
403.963	171.545
403.464	157.438
402.962	142.373
402.462	129.53
401.963	120.449
401.461	112.763
400.961	105.661
400.461	100.616
399.959	96.1596
399.46	91.579
398.958	88.2475
398.4577	85.6894
397.958	84.0282
397.456	82.7411
396.956	81.8234
396.454	81.3119
395.954	81.1833
395.454	80.6497
394.951	80.8382
394.451	80.1176
393.9491	80.3242
393.449	79.8312
392.949	80.2531
392.446	80.3494
391.946	80.408
391.444	80.95697
390.944	82.0905
390.441	83.5262
389.941	84.8821
389.438	86.258
388.938	88.6993
388.435	91.3132
387.935	94.4364
387.432	96.9619
386.932	100.5704
386.429	103.97
385.929	108.523
385.4259	113.365
384.925	118.096
384.423	122.4441
383.922	125.405
383.419	132.034
382.918	134.268
382.4155	134.05
381.915	131.185
381.4118	124.529
380.909	117.549
380.408	114.398
379.905	111.527
379.404	112.9793
378.901	108.767
378.398	104.884
377.897	101.147
377.394	97.5227
376.893	93.87767
376.39	90.8039
375.886	88.1403
375.385	86.00631
374.882	84.7205
374.379	83.9004
373.877	82.9474
373.374	82.687
372.871	82.6201
372.369	82.8206
371.866	83.1168
371.363	83.4111
370.861	83.6108
370.3577	83.8139
369.854	84.0408
369.353	83.89621
368.849	83.2421
368.345	82.79348
367.844	82.3175
367.34	81.7605
366.837	80.8972
366.333	79.9975
365.831	79.079
365.327	78.0909
364.824	77.2981
364.32	76.8069
363.818	76.4267
363.314	76.1936
362.81	75.8916
362.306	76.09523
361.804	75.9876
361.3	75.9308
360.796	75.8778
360.292	75.78405
359.788	75.6826
359.286	75.5789
358.782	75.5041
358.278	75.492
357.774	75.6238
357.269	75.1269
356.765	74.8199
356.263	74.7224
355.759	75.0441
355.254	75.3347
354.75	75.7972
354.246	76.3926
353.741	76.8186
353.237	77.3603
352.734	78.3866
352.23	79.1798
351.7254	79.6112
351.221	79.7349
350.716	79.6301
350.2117	79.3547
349.707	78.9983
349.202	78.4977
348.698	77.8541
348.193	77.11602
347.688	76.2423
347.186	75.4284
346.681	75.2624
346.176	75.4141
345.671	76.2407
345.166	76.6923
344.661	77.5423
344.1564	79.1133
343.651	80.2818
343.146	81.2942
342.641	82.1361
342.136	82.8625
341.631	83.6124
341.126	83.9483
340.621	83.8964
340.116	84.1958
339.611	84.00177
339.106	83.8746
338.6	83.0185
338.095	82.1058
337.59	81.247
337.084	80.9333
336.577	80.0173
336.072	78.85878
335.566	77.7192
335.061	76.6585
334.555	75.7889
334.05	75.10511
333.544	74.5791
333.039	74.17289
332.5332	73.933
332.028	73.7128
331.522	73.0367
331.014	72.8499
330.509	72.98082
330.003	73.4385
329.497	74.1149
328.991	75.0019
328.486	76.0098
327.98	76.95
327.474	77.3869
326.966	77.3215
326.46	77.7364
325.9541	77.8287
325.448	77.8475
324.942	77.8651
324.434	78.0049
323.928	78.2992
323.422	78.5562
322.916	78.8004
322.41	78.8708
321.902	78.9563
321.395	79.0613
320.889	79.214
320.383	79.4184
319.877	79.6203
319.368	79.806
318.862	79.9542
318.356	80.5891
317.849	80.96685
317.341	81.2164
316.834	81.0946
316.328	80.7807
315.819	80.4001
315.313	80.0686
314.806	79.899
314.3	79.9017
313.791	80.0654
313.284	80.2447
312.778	80.47094
312.269	80.8366
311.762	81.3142
311.255	81.8807
310.747	82.4648
310.24	83.022
309.733	83.4262
309.224	83.784
308.717	84.1174
308.2103	84.6321
307.701	85.22187
307.194	85.8287
306.685	86.4751
306.178	87.15332
305.6712	88.0825
305.162	89.0099
304.655	89.6034
304.146	90.1639
303.639	90.80574
303.131	91.4188
302.6221	92.2657
302.115	92.5358
301.6055	92.6726
301.098	92.5115
300.589	92.0886
300.081	91.3836
299.5741	90.8556
299.065	90.5772
298.557	88.5021
298.048	86.4302
297.54	84.9601
297.031	83.5121
296.523	82.1517
296.013	80.9424
295.506	79.9423
294.996	79.008
294.488	78.2657
293.979	78.89064
293.471	79.015
292.961	79.1504
292.453	79.189
291.943	79.2351
291.436	78.9862
290.926	79.104
290.416	79.2428
289.908	79.423
289.398	79.4949
288.89	79.5019
288.38	79.316
287.872	79.43
287.362	79.7827
286.851	79.6049
286.343	79.437
285.833	79.2656
285.325	79.0457
284.815	78.6482
284.304	78.2715
283.796	78.03746
283.286	78.0296
282.777	78.1346
282.267	78.38932
281.7565	78.5537
281.248	78.7098
280.738	78.9458
280.227	79.18399
279.719	79.4005
279.208	79.5969
278.697	79.678
278.189	79.716
277.678	79.7586
277.168	79.6911
276.657	79.31485
276.148	78.6138
275.637	77.7316
275.127	76.7318
274.618	75.7509
274.1069	74.793
273.596	74.1188
273.085	73.4758
272.576	73.0929
272.065	73.0875
271.554	72.7949
271.043	72.8218
270.534	73.0516
270.023	73.49585
269.512	74.00769
269.001	76.0794
268.492	76.3207
267.981	76.4715
267.469	76.3491
266.958	76.0384
266.447	75.5102
265.938	74.79
265.426	73.9288
264.915	73.10218
264.403	72.4882
263.892	72.029
263.381	71.6821
262.871	71.5694
262.36	71.8712
261.848	72.6894
261.337	73.0118
260.825	73.2651
260.313	73.4464
259.802	73.5725
259.292	73.6368
258.78	73.699
258.269	73.7779
257.757	73.7929
257.245	73.78257
256.733	73.7516
256.221	73.76355
255.709	73.9603
255.198	74.1424
254.686	74.3774
254.174	74.53508
253.662	74.6229
253.1517	74.6145
252.64	74.8392
252.128	75.2241
251.615	75.594
251.103	75.7985
250.591	75.9427
250.079	75.4671
249.567	74.90551
249.054	74.01519
248.542	73.0819
248.03	72.3607
247.518	71.6916
247.0052	70.6893
246.493	70.3556
245.98	70.611
245.468	70.5684
244.955	70.511
244.443	70.3754
243.93	70.2279
243.418	70.2196
242.905	70.3724
242.391	71.0136
241.8779	71.1583
241.365	71.09333
240.853	70.7329
240.34	70.11264
239.827	69.3522
239.314	69.2467
238.801	69.2067
238.289	69.1913
237.7757	69.2835
237.2628	70.2469
236.748	70.2998
236.2348	70.4165
235.722	70.5894
235.2088	70.8231
234.696	71.00293
234.183	71.0004
233.67	70.90657
233.154	70.0262
232.641	69.8949
232.128	69.5812
231.615	69.4925
231.102	69.9528
230.588	70.5685
230.073	71.3559
229.56	72.364
229.046	73.13533
228.533	73.5247
228.019	73.5679
227.504	73.4572
226.99	73.2901
226.477	73.0321
225.963	72.7327
225.45	72.3276
224.9341	71.8415
224.42	71.3824
223.907	70.95
223.393	70.1431
222.877	69.321
222.364	68.7782
221.85	68.056
221.334	67.5321
220.82	67.4482
220.306	67.5029
219.792	67.5688
219.276	67.782
218.763	67.8394
218.2486	67.6942
217.7325	67.805
217.218	67.8106
216.704	67.52475
216.188	67.3917
215.674	67.3331
215.16	67.3134
214.6438	67.3246
214.13	67.4701
213.6154	67.6475
213.099	67.8381
212.585	68.007
212.07	68.07914
211.554	68.0791
211.0397	68.0887
210.523	68.0936
210.0088	68.1212
209.494	68.24054
208.978	68.5034
208.463	68.5247
207.947	68.4465
207.4321	68.2625
206.918	68.02034
206.4008	67.7102
205.886	67.3407
205.369	66.8713
204.855	66.30529
204.338	65.661
203.8231	64.8937
203.306	64.0135
202.791	63.1402
202.277	62.4675
201.7596	62.1263
201.245	61.9448
200.728	61.9639
200.213	62.0835
199.696	62.4631
199.1806	63.3514
198.663	64.3194
198.148	65.30703
197.631	66.2785
197.114	67.1986
196.5988	68.0765
196.0815	68.3312
195.5663	67.9583
195.049	67.5233
194.534	67.0269
194.016	66.5156
193.501	65.809
192.983	65.2998
192.468	64.9761
191.951	64.6554
191.433	64.2969
190.918	63.9557
190.4	63.6464
189.884	63.365
189.367	63.1526
188.849	63.0852
188.333	62.9634
187.816	63.0157
187.3	63.1432
186.782	63.2383
186.264	63.2746
185.749	63.1749
185.231	63.3176
184.7128	63.467
184.197	63.634
183.679	63.8045
183.161	64.0153
182.645	64.27272
182.127	64.4101
181.609	64.5548
181.093	64.6248
180.575	64.7219
180.057	64.7404
179.54	64.7731
179.022	64.7496
178.504	64.6564
177.986	64.555
177.469	64.592
176.951	64.66507
176.433	64.7096
175.914	64.797
175.3979	64.8528
174.879	64.9442
174.361	65.0104
173.842	65.09
173.326	65.15258
172.807	65.2343
172.289	65.4162
171.77	65.3459
171.254	65.2875
170.735	65.1559
170.216	65.03968
169.697	64.7132
169.179	64.5222
168.662	64.2718
168.143	64.0389
167.624	63.7699
167.105	63.4916
166.586	63.2644
166.067	63.0196
165.55	62.8528
165.031	62.7375
164.512	63.053
163.9933	63.2562
163.4742	63.4399
162.955	63.61853
162.4359	63.7943
161.9167	63.9454
161.3996	62.9413
160.88	62.9148
160.361	62.7962
159.842	62.7143
159.3224	62.62595
158.803	62.5713
158.284	62.5667
157.764	62.711
157.245	62.5441
156.725	62.2199
156.206	61.9003
155.686	61.6388
155.169	61.4382
154.649	61.2894
154.13	61.3058
153.61	61.38868
153.09	61.5298
152.57	61.55714
152.051	61.5791
151.531	61.6548
151.011	61.9921
150.491	62.1038
149.971	62.0281
149.452	61.7534
148.932	61.3088
148.412	60.644
147.892	60.4869
147.372	60.3845
146.8517	60.2912
146.332	60.26487
145.812	60.3383
145.289	60.4182
144.769	60.55928
144.249	60.7704
143.729	61.0962
143.209	61.586
142.688	62.135
142.168	62.7717
141.648	63.4569
141.127	64.1251
140.607	64.7805
140.086	64.833
139.566	65.1419
139.046	64.8743
138.523	64.5434
138.002	64.8056