File: bartels lab/3642 MoS2 on 1012 WG/raman1_dominic/R2_C1/3642 R2C1 waveguide 2983x 4342y Raman 1800t2 d1 100x.txt
650.268	67.6141
649.786	70.7754
649.306	72.4762
648.823	73.6428
648.343	74.8355
647.863	75.31649
647.38	75.5756
646.9	75.7704
646.417	75.91758
645.937	76.0227
645.4541	76.1144
644.974	76.1693
644.491	76.23497
644.01	76.2633
643.528	76.3166
643.047	76.3645
642.564	76.3659
642.084	76.40538
641.601	76.4203
641.12	76.44297
640.637	76.4377
640.156	76.4388
639.674	76.4256
639.193	76.4109
638.71	76.3915
638.227	76.3662
637.746	76.3397
637.263	76.3123
636.782	76.2814
636.299	76.2597
635.818	76.2285
635.335	76.2166
634.852	76.1891
634.371	76.1215
633.887	76.0834
633.406	76.1235
632.9231	76.1326
632.44	76.1887
631.959	76.2275
631.475	76.2819
630.992	76.3401
630.511	76.40284
630.027	76.4778
629.544	76.546
629.0625	76.6336
628.579	76.709
628.096	76.7985
627.614	76.8959
627.131	76.9926
626.647	77.0832
626.163	77.1615
625.682	77.1898
625.198	77.23307
624.7146	77.2192
624.233	77.209
623.749	77.1444
623.2655	76.8711
622.782	76.5142
622.3	76.2549
621.816	76.0292
621.332	75.7496
620.849	75.5003
620.367	75.24778
619.883	75.0269
619.3988	74.8422
618.915	74.8998
618.431	75.0441
617.949	75.2449
617.465	75.5652
616.981	76.1442
616.4967	76.7477
616.013	77.4829
615.528	78.3608
615.046	79.0541
614.562	79.6124
614.078	79.2309
613.594	78.9538
613.109	78.5023
612.625	77.81218
612.141	76.9207
611.656	75.9018
611.174	74.844
610.69	73.8651
610.205	73.0366
609.721	72.50573
609.236	72.6659
608.752	73.3889
608.267	73.7024
607.783	73.9988
607.298	74.3557
606.814	74.8001
606.329	75.4706
605.844	76.2103
605.36	76.8967
604.875	77.4744
604.39	77.8698
603.9054	78.1622
603.421	78.5747
602.936	78.9566
602.451	79.3161
601.966	79.6171
601.4812	79.9181
600.996	80.152
600.511	80.2952
600.026	80.3488
599.541	80.24617
599.0564	80.0074
598.571	79.6107
598.0863	79.0727
597.6012	78.3602
597.116	77.4685
596.631	76.3362
596.146	75.2462
595.661	74.145
595.175	73.2435
594.69	72.9921
594.205	72.7942
593.717	72.6804
593.232	72.6779
592.747	72.703
592.261	73.1522
591.776	73.6241
591.291	74.0712
590.805	74.4848
590.32	74.8828
589.832	75.2308
589.347	75.51088
588.861	75.7234
588.375	75.8301
587.89	75.7929
587.404	75.6749
586.9165	75.5063
586.431	75.2969
585.945	75.0865
585.459	74.8454
584.974	74.5474
584.486	74.2355
584	73.9182
583.5141	73.38015
583.0282	72.7992
582.54	72.2218
582.054	71.651
581.568	71.0884
581.082	70.541
580.594	70.0241
580.1084	69.5775
579.622	69.2324
579.136	69.0716
578.648	69.07869
578.162	69.27607
577.676	69.5607
577.188	69.9646
576.701	70.41
576.215	70.8662
575.727	71.3252
575.2406	71.8294
574.754	72.3417
574.266	72.762
573.7796	73.0548
573.293	73.1322
572.805	73.3425
572.3183	73.3301
571.832	73.3179
571.343	73.5677
570.857	73.835
570.368	74.1305
569.882	74.4718
569.395	74.9609
568.906	75.4554
568.42	75.8332
567.931	76.2038
567.444	76.28
566.958	76.2934
566.469	76.10199
565.982	75.93055
565.493	75.7728
565.006	75.644
564.517	75.5322
564.031	75.4516
563.542	75.4453
563.055	75.4628
562.568	75.8963
562.079	76.3568
561.592	76.9679
561.103	77.6937
560.6156	78.47522
560.126	79.19799
559.639	79.8337
559.15	80.3394
558.661	79.8929
558.174	79.3194
557.685	78.50296
557.197	77.4988
556.708	76.3785
556.221	75.1535
555.731	74.0301
555.244	73.2616
554.755	72.7683
554.265	72.5738
553.778	72.6047
553.288	72.6388
552.801	73.36161
552.311	74.1805
551.822	75.129
551.334	76.1414
550.844	77.1705
550.357	78.1278
549.867	79.19
549.377	79.6036
548.89	79.9101
548.4	80.2147
547.91	80.4535
547.422	80.6958
546.933	80.9502
546.443	81.1912
545.955	81.4899
545.465	81.7709
544.975	82.28067
544.487	82.7608
543.997	83.2723
543.507	83.8032
543.019	84.3338
542.529	84.8937
542.039	85.4609
541.549	86.0417
541.061	86.6373
540.5705	87.2333
540.08	87.8579
539.59	88.47065
539.102	89.1077
538.612	89.73365
538.121	90.3955
537.631	91.0578
537.141	91.758
536.652	92.4733
536.1618	93.3347
535.671	94.2643
535.181	95.3069
534.69	96.7118
534.202	98.1875
533.711	99.7709
533.221	101.872
532.73	104.38
532.24	107.3327
531.751	112.508
531.26	116.335
530.77	120.677
530.279	125.86
529.788	131.711
529.297	138.119
528.807	145.2406
528.316	154.475
527.8269	161.428
527.336	169.524
526.845	180.195
526.354	193.968
525.863	212.6427
525.372	255.728
524.881	297.911
524.3902	353.621
523.899	428.917
523.408	534.6286
522.917	677.343
522.426	959
521.935	1254
521.443	1689
520.952	2117
520.461	2322
519.9696	2329
519.478	2024
518.987	1598.21
518.496	1221.51
518.004	910.6
517.513	685.936
517.021	525.783
516.53	424.629
516.038	336.454
515.547	291.951
515.055	252.553
514.564	218.291
514.0722	196.174
513.581	180.455
513.089	168.5751
512.597	157.994
512.106	149.263
511.6138	142.729
511.122	136.537
510.63	130.708
510.138	125.256
509.645	120.1641
509.153	115.435
508.661	111.176
508.169	107.445
507.677	104.194
507.185	101.231
506.693	98.6308
506.201	96.3906
505.707	94.4153
505.215	92.7588
504.723	91.36142
504.231	90.1591
503.738	89.218
503.246	88.5055
502.752	87.9182
502.2598	87.7693
501.768	87.6837
501.275	87.6518
500.783	87.702
500.289	87.7217
499.796	87.6068
499.3038	87.287
498.811	87.0044
498.317	86.5775
497.824	85.75827
497.332	84.8735
496.839	83.9299
496.345	82.8992
495.852	81.9726
495.36	81.00721
494.867	80.0057
494.372	79.2157
493.88	78.4113
493.3869	77.893
492.892	77.3665
492.399	76.9709
491.907	76.5352
491.412	76.191
490.919	75.8717
490.426	75.5578
489.931	75.32917
489.438	74.9334
488.945	74.5615
488.45	74.2101
487.957	73.7169
487.464	73.3724
486.969	73.0001
486.476	72.721
485.983	72.4086
485.488	72.1885
484.994	71.8702
484.499	71.9807
484.006	72.112
483.513	72.5553
483.017	72.9721
482.524	73.4596
482.029	73.93779
481.535	74.82621
481.04	75.0978
480.547	75.3771
480.053	75.6534
479.558	75.6154
479.064	75.6992
478.569	75.7583
478.075	75.8685
477.58	75.937
477.086	76.0504
476.59	76.1612
476.097	76.2929
475.601	76.4597
475.107	76.6187
474.611	76.9613
474.118	77.2915
473.622	77.5833
473.128	77.8969
472.6322	78.2275
472.138	78.555
471.6424	78.9111
471.146	79.2499
470.653	79.6212
470.156	79.9696
469.663	80.35656
469.166	80.6845
468.672	81.0845
468.1763	81.443
467.68	81.9752
467.186	82.4918
466.69	83.0185
466.196	83.5475
465.6994	84.0479
465.203	84.55809
464.709	85.0363
464.213	85.4893
463.716	85.8651
463.222	85.5558
462.7254	85.2613
462.231	84.9756
461.735	84.5963
461.238	84.18679
460.744	83.786
460.247	83.39196
459.75	83.0376
459.254	82.6889
458.759	82.7156
458.263	82.7006
457.766	82.7976
457.2713	82.9284
456.775	83.2234
456.2778	83.6176
455.783	84.0718
455.286	84.6385
454.7894	85.2569
454.293	85.9306
453.7977	86.6144
453.301	87.3433
452.8038	88.107
452.307	88.8175
451.81	89.5502
451.315	89.2412
450.818	88.7694
450.321	88.1174
449.824	87.5396
449.329	86.7064
448.831	86.1214
448.334	85.8002
447.837	85.513
447.34	85.2944
446.842	85.0748
446.347	84.9047
445.85	84.7325
445.352	84.58593
444.8551	84.4447
444.3577	84.31205
443.86	84.1904
443.363	84.0648
442.867	83.9546
442.37	83.8316
441.872	83.7269
441.375	83.6053
440.877	83.4306
440.379	83.3092
439.882	83.2169
439.384	83.0678
438.886	83.042
438.389	82.8431
437.891	82.6694
437.395	82.4731
436.897	82.2807
436.3996	82.0928
435.902	81.8922
435.404	81.6882
434.906	81.507
434.408	81.3251
433.91	81.183
433.412	81.1068
432.914	80.8022
432.416	80.9121
431.918	81.0273
431.42	81.18721
430.922	81.7253
430.4234	82.0649
429.9252	82.3919
429.427	82.769
428.929	83.121
428.43	83.4611
427.932	83.8092
427.434	84.1245
426.935	84.4503
426.435	84.5905
425.937	84.7744
425.4382	84.9178
424.94	85.0387
424.441	85.1105
423.943	85.20211
423.444	85.2501
422.946	85.2923
422.447	85.296
421.948	85.2908
421.45	85.2542
420.949	85.2042
420.45	85.132
419.952	85.044
419.453	84.945
418.954	84.8337
418.4552	84.7251
417.956	84.6091
417.455	84.5067
416.957	84.4058
416.458	84.62
415.959	84.7319
415.46	84.91095
414.961	85.1445
414.46	85.8314
413.961	86.728
413.461	88.9968
412.962	91.6587
412.461	94.7028
411.962	98.2541
411.463	102.804
410.964	108.239
410.464	114.633
409.963	122
409.464	130.336
408.964	137.881
408.465	146.812
407.964	155.295
407.464	166.359
406.965	177.103
406.463	186.6
405.964	202.298
405.464	202.218
404.9646	198.739
404.463	181.88
403.963	169.545
403.464	155.861
402.962	142.734
402.462	131.3741
401.963	120.677
401.461	111.995
400.961	104.702
400.461	99.0102
399.959	93.8793
399.46	90.7612
398.958	88.1628
398.4577	86.1469
397.958	84.61512
397.456	83.53997
396.956	82.8445
396.454	82.4699
395.954	82.2784
395.454	81.7972
394.951	81.4174
394.451	81.7513
393.9491	82.5789
393.449	84.1527
392.949	83.801
392.446	83.872
391.946	83.2996
391.444	82.4828
390.944	82.0848
390.441	81.8822
389.941	82.4081
389.438	80.1766
388.938	82.4669
388.435	85.6827
387.935	89.2484
387.432	93.80529
386.932	100.715
386.429	106.539
385.929	111.486
385.4259	115.715
384.925	119.473
384.423	122.869
383.922	122.7689
383.419	121.8623
382.918	120.211
382.4155	117.885
381.915	114.039
381.4118	110.244
380.909	106.159
380.408	102.375
379.905	98.8256
379.404	95.2873
378.901	92.3275
378.398	90.936
377.897	89.5556
377.394	88.2351
376.893	86.974
376.39	85.8005
375.886	84.6713
375.385	83.6275
374.882	82.3225
374.379	81.7127
373.877	81.1879
373.374	80.739
372.871	80.3329
372.369	79.9977
371.866	79.69014
371.363	79.4436
370.861	79.216
370.3577	79.0356
369.854	78.8715
369.353	78.7376
368.849	78.62291
368.345	78.51812
367.844	78.4415
367.34	78.3419
366.837	78.1602
366.333	77.9676
365.831	77.8043
365.327	77.6445
364.824	77.5359
364.32	77.2728
363.818	77.2972
363.314	77.2974
362.81	77.3417
362.306	77.3873
361.804	77.4469
361.3	77.5286
360.796	77.6073
360.292	77.6901
359.788	77.7742
359.286	77.8644
358.782	77.9391
358.278	77.9983
357.774	78.0387
357.269	78.0442
356.765	78.0322
356.263	77.9921
355.759	77.7149
355.254	77.39724
354.75	77.057
354.246	76.7248
353.741	76.3683
353.237	76.043
352.734	75.6992
352.23	75.3783
351.7254	75.0692
351.221	74.7812
350.716	74.5245
350.2117	74.2794
349.707	74.2396
349.202	74.24588
348.698	74.2747
348.193	74.3718
347.688	74.5466
347.186	74.7749
346.681	75.0726
346.176	75.4402
345.671	75.8769
345.166	76.3473
344.661	76.9231
344.1564	77.5769
343.651	78.2838
343.146	79.0742
342.641	79.8937
342.136	80.7285
341.631	81.4927
341.126	82.1996
340.621	82.8648
340.116	82.9931
339.611	83.011
339.106	82.8226
338.6	82.4339
338.095	81.8711
337.59	81.0122
337.084	80.0019
336.577	78.944
336.072	77.838
335.566	77.0349
335.061	76.7194
334.555	76.4703
334.05	76.2961
333.544	76.2346
333.039	76.2404
332.5332	76.3635
332.028	76.5592
331.522	76.8636
331.014	77.236
330.509	77.70536
330.003	78.2392
329.497	78.8305
328.991	79.4473
328.486	80.07531
327.98	80.6341
327.474	80.0849
326.966	79.8832
326.46	80.3592
325.9541	80.4669
325.448	80.7985
324.942	80.5589
324.434	80.3418
323.928	80.1133
323.422	79.9146
322.916	79.7152
322.41	79.5483
321.902	79.3899
321.395	79.2625
320.889	79.1582
320.383	79.0791
319.877	79.023
319.368	79.0197
318.862	79.0311
318.356	79.0719
317.849	79.1983
317.341	79.2766
316.834	79.4261
316.328	79.6856
315.819	80.0341
315.313	80.3672
314.806	80.7719
314.3	81.1656
313.791	81.6054
313.284	82.0445
312.778	82.4971
312.269	82.9619
311.762	83.4016
311.255	83.8653
310.747	84.2634
310.24	84.6852
309.733	84.6968
309.224	84.74588
308.717	84.6832
308.2103	84.7101
307.701	84.6606
307.194	84.6225
306.685	84.61
306.178	84.965
305.6712	86.1614
305.162	86.8168
304.655	87.3777
304.146	87.8849
303.639	88.3276
303.131	88.9852
302.6221	89.30365
302.115	89.145
301.6055	88.7202
301.098	88.2056
300.589	87.59211
300.081	86.9336
299.5741	86.22744
299.065	85.5424
298.557	85.0457
298.048	84.69812
297.54	84.4193
297.031	84.1815
296.523	83.9074
296.013	83.6382
295.506	83.3582
294.996	83.0547
294.488	82.7839
293.979	82.5596
293.471	82.5574
292.961	82.53
292.453	81.9385
291.943	81.4561
291.436	81.181
290.926	80.9827
290.416	80.5413
289.908	79.9671
289.398	79.1926
288.89	78.4038
288.38	77.8092
287.872	77.3698
287.362	77.0318
286.851	76.5144
286.343	76.1542
285.833	76.0673
285.325	76.22892
284.815	76.5988
284.304	77.1915
283.796	77.8725
283.286	78.4323
282.777	78.648
282.267	78.6542
281.7565	78.6991
281.248	78.87664
280.738	78.9995
280.227	78.9622
279.719	78.7437
279.208	78.2943
278.697	77.4817
278.189	76.9014
277.678	75.7166
277.168	75.2827
276.657	75.1063
276.148	75.4061
275.637	75.5872
275.127	75.6111
274.618	75.5111
274.1069	75.3043
273.596	75.0784
273.085	74.947
272.576	74.9078
272.065	74.9805
271.554	75.0358
271.043	74.767
270.534	74.3349
270.023	72.9737
269.512	72.9089
269.001	72.8677
268.492	72.8538
267.981	72.8738
267.469	72.9475
266.958	73.1068
266.447	73.2449
265.938	73.2427
265.426	72.9305
264.915	72.59465
264.403	72.2715
263.892	71.9411
263.381	71.6298
262.871	71.3288
262.36	71.0446
261.848	70.7707
261.337	70.5222
260.825	70.3135
260.313	70.1542
259.802	69.99482
259.292	69.8972
258.78	69.9968
258.269	70.1114
257.757	70.2517
257.245	70.4143
256.733	70.5759
256.221	70.7551
255.709	70.9157
255.198	71.0821
254.686	71.2183
254.174	71.34124
253.662	71.4495
253.1517	71.4701
252.64	71.2544
252.128	71.07811
251.615	70.7912
251.103	70.4729
250.591	70.04702
250.079	69.6005
249.567	69.0969
249.054	68.5327
248.542	67.926
248.03	67.3119
247.518	66.73304
247.0052	66.21653
246.493	66.2676
245.98	66.566
245.468	67.4729
244.955	68.559
244.443	70.0086
243.93	71.6005
243.418	72.8524
242.905	73.8667
242.391	74.5826
241.8779	74.9576
241.365	75.0803
240.853	74.3091
240.34	74.1859
239.827	73.9428
239.314	73.3297
238.801	72.3228
238.289	71.4394
237.7757	70.7041
237.2628	70.15387
236.748	69.8007
236.2348	69.5819
235.722	69.5053
235.2088	69.4078
234.696	69.852
234.183	70.3395
233.67	70.831
233.154	71.3811
232.641	71.88781
232.128	72.3414
231.615	72.6968
231.102	72.9156
230.588	73.0574
230.073	73.0901
229.56	72.9901
229.046	72.4601
228.533	71.8559
228.019	71.2377
227.504	70.57933
226.99	69.9065
226.477	69.1978
225.963	68.4924
225.45	67.7928
224.9341	67.1235
224.42	66.5925
223.907	65.8642
223.393	65.8503
222.877	65.8801
222.364	65.9291
221.85	65.9848
221.334	66.0577
220.82	66.1265
220.306	66.1911
219.792	66.2586
219.276	66.3067
218.763	66.3619
218.2486	66.3838
217.7325	66.4164
217.218	66.4037
216.704	66.40416
216.188	66.3655
215.674	66.3376
215.16	66.29
214.6438	66.2424
214.13	66.1922
213.6154	66.1325
213.099	66.0843
212.585	66.0209
212.07	65.9751
211.554	65.9149
211.0397	65.8799
210.523	65.8069
210.0088	65.7778
209.494	65.7249
208.978	65.73822
208.463	65.6348
207.947	65.5102
207.4321	65.3922
206.918	65.2493
206.4008	65.1118
205.886	64.9604
205.369	64.8064
204.855	64.6366
204.338	64.4842
203.8231	64.302
203.306	64.1386
202.791	64.0933
202.277	64.0461
201.7596	64.0232
201.245	64.0093
200.728	64.0008
200.213	64.0105
199.696	64.2931
199.1806	64.4066
198.663	64.4273
198.148	64.4538
197.631	64.4539
197.114	64.5239
196.5988	64.3199
196.0815	64.0558
195.5663	63.5836
195.049	63.2002
194.534	62.7861
194.016	62.39595
193.501	62.0097
192.983	61.6539
192.468	61.31
191.951	60.995
191.433	60.7181
190.918	60.4484
190.4	60.43132
189.884	60.359
189.367	60.4125
188.849	60.5274
188.333	60.4936
187.816	60.5134
187.3	60.5174
186.782	60.5825
186.264	60.6387
185.749	60.74757
185.231	60.8885
184.7128	61.0624
184.197	61.3403
183.679	61.657
183.161	62.1184
182.645	63.1613
182.127	64.0558
181.609	64.8876
181.093	65.7112
180.575	66.4382
180.057	66.3606
179.54	65.2274
179.022	64.5465
178.504	64.5411
177.986	64.2512
177.469	63.9155
176.951	63.5785
176.433	63.3071
175.914	63.1869
175.3979	63.28162
174.879	63.5805
174.361	63.9505
173.842	64.0677
173.326	64.1785
172.807	64.4488
172.289	64.7243
171.77	64.9336
171.254	65.0217
170.735	64.9773
170.216	64.8001
169.697	64.5235
169.179	63.8817
168.662	63.2043
168.143	62.6265
167.624	62.1156
167.105	61.7688
166.586	61.47834
166.067	61.2404
165.55	61.2217
165.031	61.2632
164.512	61.5994
163.9933	61.957
163.4742	62.3457
162.955	62.7472
162.4359	63.1507
161.9167	63.5103
161.3996	63.8296
160.88	64.0178
160.361	64.2417
159.842	63.9131
159.3224	63.5994
158.803	63.2657
158.284	62.8335
157.764	62.3603
157.245	61.8836
156.725	61.42638
156.206	60.89476
155.686	60.6218
155.169	60.5294
154.649	60.4655
154.13	60.4518
153.61	60.4919
153.09	60.5598
152.57	60.6285
152.051	60.6329
151.531	60.68396
151.011	60.8742
150.491	60.7594
149.971	60.6229
149.452	60.3244
148.932	60.07724
148.412	59.8274
147.892	59.5889
147.372	59.3769
146.8517	59.1961
146.332	59.0404
145.812	58.8998
145.289	58.8129
144.769	58.7252
144.249	58.8998
143.729	59.0713
143.209	59.3191
142.688	59.7206
142.168	60.1129
141.648	60.5111
141.127	61.0154
140.607	61.52816
140.086	62.1225
139.566	62.743
139.046	63.4036
138.523	64.1212
138.002	64.81