File: bartels lab/3642 MoS2 on 1012 WG/raman1_dominic/R2_C1/3642 R2C1 waveguide 2983x 4352y Raman 1800 t2 d1 100x.txt
650.268	81.1867
649.786	80.3223
649.306	80.0088
648.823	80.18615
648.343	80.3685
647.863	80.571
647.38	80.8395
646.9	80.9779
646.417	81.525
645.937	81.792
645.4541	82.2737
644.974	83.1211
644.491	84.371
644.01	85.49807
643.528	86.2107
643.047	86.6914
642.564	87.0836
642.084	87.3799
641.601	87.2849
641.12	87.0222
640.637	86.8902
640.156	86.1797
639.674	85.4447
639.193	84.8355
638.71	84.2929
638.227	83.7551
637.746	83.40593
637.263	82.8662
636.782	82.6214
636.299	82.44191
635.818	82.5048
635.335	82.7209
634.852	83.0875
634.371	83.3991
633.887	83.3117
633.406	83.1639
632.9231	83.2569
632.44	83.2752
631.959	82.983
631.475	82.6901
630.992	82.6233
630.511	82.6702
630.027	82.90242
629.544	83.2436
629.0625	82.9549
628.579	82.9179
628.096	82.9497
627.614	83.0628
627.131	83.2042
626.647	82.9776
626.163	83.0375
625.682	83.1046
625.198	83.1588
624.7146	83.12426
624.233	83.1201
623.749	83.0622
623.2655	82.9838
622.782	82.4647
622.3	81.6511
621.816	80.5676
621.332	80.2923
620.849	80.1497
620.367	80.06
619.883	80.0242
619.3988	80.058
618.915	80.143
618.431	80.3148
617.949	80.5968
617.465	80.9592
616.981	81.68206
616.4967	82.77446
616.013	83.6288
615.528	84.2912
615.046	84.6352
614.562	84.5677
614.078	84.1342
613.594	83.8037
613.109	83.7424
612.625	83.6478
612.141	83.2093
611.656	83.1578
611.174	83.0768
610.69	82.8852
610.205	82.6263
609.721	82.3736
609.236	82.1346
608.752	82.03196
608.267	81.995
607.783	82.0368
607.298	82.1616
606.814	82.2908
606.329	82.35981
605.844	82.8086
605.36	82.8361
604.875	83.2188
604.39	83.7332
603.9054	84.67276
603.421	84.8466
602.936	84.7022
602.451	84.1815
601.966	83.4257
601.4812	82.6613
600.996	81.9813
600.511	81.3758
600.026	80.786
599.541	80.2544
599.0564	79.8024
598.571	79.4274
598.0863	79.6118
597.6012	79.8033
597.116	80.11293
596.631	80.518
596.146	80.9971
595.661	81.6431
595.175	82.3937
594.69	83.2163
594.205	83.7378
593.717	83.6966
593.232	83.2946
592.747	82.5604
592.261	81.7728
591.776	80.8077
591.291	79.8131
590.805	78.7524
590.32	77.8535
589.832	77.1514
589.347	76.7368
588.861	76.4198
588.375	76.2597
587.89	76.2583
587.404	76.6408
586.9165	77.1357
586.431	77.6644
585.945	78.4113
585.459	79.21376
584.974	80.108
584.486	80.957
584	81.62883
583.5141	82.152
583.0282	82.4051
582.54	82.5201
582.054	82.5373
581.568	82.7491
581.082	82.8459
580.594	82.9825
580.1084	82.4166
579.622	81.3447
579.136	80.9013
578.648	80.4264
578.162	79.8616
577.676	79.2386
577.188	78.6926
576.701	78.2549
576.215	78.123
575.727	78.13652
575.2406	78.3312
574.754	78.5993
574.266	78.77224
573.7796	78.6553
573.293	78.7745
572.805	78.8864
572.3183	79.1165
571.832	79.3575
571.343	79.3397
570.857	79.235
570.368	78.907
569.882	78.5687
569.395	78.2433
568.906	77.9566
568.42	77.6999
567.931	77.5043
567.444	77.4567
566.958	77.5548
566.469	77.988
565.982	78.4315
565.493	78.9672
565.006	79.397
564.517	79.3402
564.031	79.447
563.542	79.81662
563.055	80.3564
562.568	81.1582
562.079	82.0695
561.592	82.7267
561.103	83.212
560.6156	83.4385
560.126	83.53418
559.639	83.2607
559.15	83.5351
558.661	83.6623
558.174	81.9126
557.685	82.1787
557.197	82.4706
556.708	82.7575
556.221	83.0023
555.731	83.1337
555.244	83.3443
554.755	83.6235
554.265	83.4358
553.778	83.2126
553.288	83.004
552.801	82.7744
552.311	82.5602
551.822	82.359
551.334	82.1675
550.844	82.042
550.357	81.912
549.867	81.8768
549.377	81.82637
548.89	81.8787
548.4	81.9171
547.91	82.0719
547.422	82.3545
546.933	82.6852
546.443	82.9853
545.955	83.3623
545.465	83.7729
544.975	84.208
544.487	84.6902
543.997	85.3062
543.507	85.8354
543.019	86.4104
542.529	87.0056
542.039	87.6484
541.549	88.2975
541.061	89.0199
540.5705	89.6811
540.08	90.5024
539.59	91.3895
539.102	92.3024
538.612	93.292
538.121	94.4127
537.631	95.5225
537.141	96.6666
536.652	97.7439
536.1618	98.8577
535.671	99.8364
535.181	100.873
534.69	101.588
534.202	102.2
533.711	102.963
533.221	103.6781
532.73	104.559
532.24	105.622
531.751	108.15
531.26	109.986
530.77	113.043
530.279	115.677
529.788	119.537
529.297	123.409
528.807	129.893
528.316	136.142
527.8269	143.978
527.336	153.747
526.845	166.622
526.354	182.0845
525.863	204.787
525.372	225.024
524.881	251.687
524.3902	286.1059
523.899	343.026
523.408	469.15
522.917	557.7
522.426	742.667
521.935	1011.73
521.443	1350.69
520.952	1759.97
520.461	1927.06
519.9696	1879.3
519.478	1572.01
518.987	1150.06
518.496	871.429
518.004	641.361
517.513	509.556
517.021	409.932
516.53	327.282
516.038	269.4397
515.547	225.783
515.055	202.153
514.564	185.145
514.0722	172.268
513.581	160.384
513.089	149.427
512.597	140.199
512.106	133.632
511.6138	128.7049
511.122	124.841
510.63	122.291
510.138	120.238
509.645	118.389
509.153	116.0598
508.661	114.117
508.169	109.623
507.677	106.755
507.185	103.875
506.693	101.077
506.201	98.2616
505.707	95.4107
505.215	93.459
504.723	91.7913
504.231	90.2607
503.738	88.9305
503.246	87.6925
502.752	86.7444
502.2598	86.61969
501.768	86.6419
501.275	86.8702
500.783	86.9053
500.289	86.8444
499.796	86.4897
499.3038	86.1569
498.811	86.1781
498.317	85.90226
497.824	85.4758
497.332	84.9653
496.839	84.2588
496.345	83.8104
495.852	83.5135
495.36	83.4044
494.867	83.42511
494.372	83.4675
493.88	83.5473
493.3869	83.6355
492.892	83.71608
492.399	83.7392
491.907	83.0996
491.412	82.5039
490.919	81.64341
490.426	80.9676
489.931	79.7906
489.438	78.7121
488.945	77.9294
488.45	77.3232
487.957	76.8133
487.464	76.3144
486.969	75.91153
486.476	75.6475
485.983	75.5043
485.488	75.5442
484.994	75.8214
484.499	76.358
484.006	76.45665
483.513	76.9145
483.017	77.6625
482.524	78.73983
482.029	79.3883
481.535	79.981
481.04	80.3033
480.547	80.7421
480.053	80.5151
479.558	80.5382
479.064	80.7152
478.569	81.0576
478.075	81.0177
477.58	80.8063
477.086	80.648
476.59	80.6778
476.097	80.9974
475.601	81.4801
475.107	82.01062
474.611	82.3558
474.118	82.4093
473.622	82.896
473.128	82.9832
472.6322	82.7496
472.138	82.2016
471.6424	81.4914
471.146	80.4612
470.653	79.9267
470.156	79.5857
469.663	79.1767
469.166	78.7187
468.672	78.5716
468.1763	78.1156
467.68	78.0922
467.186	78.3244
466.69	78.8379
466.196	79.5269
465.6994	80.3881
465.203	81.2793
464.709	81.91378
464.213	82.6497
463.716	83.249
463.222	83.5829
462.7254	83.7775
462.231	83.717
461.735	83.5607
461.238	83.8343
460.744	84.12558
460.247	84.2708
459.75	84.13401
459.254	84.3038
458.759	84.7006
458.263	84.9473
457.766	85.5062
457.2713	85.7446
456.775	87.018
456.2778	86.9741
455.783	86.8781
455.286	85.8516
454.7894	85.1988
454.293	84.2849
453.7977	84.02729
453.301	81.8563
452.8038	87.8172
452.307	88.12265
451.81	86.9411
451.315	85.5574
450.818	84.94986
450.321	84.1865
449.824	84.2494
449.329	84.225
448.831	84.2702
448.334	84.4002
447.837	84.8388
447.34	85.4186
446.842	86.0192
446.347	86.487
445.85	87.0745
445.352	87.6387
444.8551	87.7983
444.3577	88.5455
443.86	89.1351
443.363	89.49868
442.867	89.6104
442.37	89.3329
441.872	88.8338
441.375	88.7516
440.877	88.2701
440.379	87.4517
439.882	86.4866
439.384	85.4829
438.886	84.4465
438.389	83.4637
437.891	82.5703
437.395	81.6137
436.897	80.0321
436.3996	79.3165
435.902	78.4785
435.404	78.5214
434.906	79.1276
434.408	80.2536
433.91	81.7808
433.412	83.1316
432.914	84.2863
432.416	85.1785
431.918	85.8792
431.42	86.4107
430.922	86.7001
430.4234	86.0215
429.9252	86.0788
429.427	86.0799
428.929	86.05722
428.43	86.0097
427.932	85.8882
427.434	85.7101
426.935	85.5208
426.435	85.3112
425.937	85.1362
425.4382	84.9867
424.94	85.1217
424.441	84.815
423.943	84.1815
423.444	83.3495
422.946	82.4787
422.447	81.6845
421.948	81.33374
421.45	81.1413
420.949	81.1753
420.45	81.7574
419.952	82.4796
419.453	83.2527
418.954	84.0985
418.4552	84.6225
417.956	85.1598
417.455	85.8833
416.957	86.5978
416.458	86.8846
415.959	87.2518
415.46	87.71859
414.961	88.1253
414.46	88.2773
413.961	89.0143
413.461	90.06662
412.962	91.76001
412.461	93.4194
411.962	96.0743
411.463	99.3318
410.964	103.365
410.464	107.834
409.963	112.3979
409.464	117.05
408.964	122.354
408.465	128.113
407.964	134.387
407.464	141.735
406.965	148.986
406.463	158.24
405.964	162.054
405.464	165.995
404.9646	163.584
404.463	158.783
403.963	143.476
403.464	131.861
402.962	120.756
402.462	111.499
401.963	106.472
401.461	99.6248
400.961	95.7167
400.461	92.7076
399.959	91.649
399.46	89.8894
398.958	88.5842
398.4577	87.6712
397.958	86.4526
397.456	83.7327
396.956	83.345
396.454	83.0727
395.954	83.4177
395.454	83.6109
394.951	83.8122
394.451	83.9889
393.9491	84.074
393.449	84.0437
392.949	83.5249
392.446	83.5303
391.946	83.4006
391.444	83.2807
390.944	83.1471
390.441	83.7252
389.941	84.0754
389.438	84.2995
388.938	86.2071
388.435	87.2303
387.935	90.4093
387.432	94.4495
386.932	99.0808
386.429	103.405
385.929	108.145
385.4259	111.727
384.925	114.4801
384.423	115.607
383.922	114.282
383.419	106.618
382.918	102.3576
382.4155	98.779
381.915	96.29911
381.4118	97.5283
380.909	96.4382
380.408	95.2755
379.905	93.3166
379.404	91.4955
378.901	89.8062
378.398	88.2342
377.897	86.7951
377.394	85.463
376.893	84.2518
376.39	83.1476
375.886	82.1359
375.385	81.2553
374.882	80.4509
374.379	79.75811
373.877	79.1638
373.374	78.5309
372.871	78.3712
372.369	78.4249
371.866	78.57724
371.363	78.8389
370.861	79.0081
370.3577	79.20388
369.854	79.3911
369.353	79.6068
368.849	79.7921
368.345	79.6966
367.844	79.7008
367.34	79.688
366.837	79.6568
366.333	79.62
365.831	79.5547
365.327	79.4773
364.824	79.3908
364.32	79.2806
363.818	79.181
363.314	79.0502
362.81	78.9531
362.306	78.8518
361.804	78.7315
361.3	78.617
360.796	78.48922
360.292	78.3872
359.788	78.2506
359.286	78.1467
358.782	78.0134
358.278	77.9091
357.774	77.7683
357.269	77.70179
356.765	77.4794
356.263	77.2487
355.759	77.0048
355.254	76.7491
354.75	76.509
354.246	76.2217
353.741	76.0044
353.237	75.70752
352.734	75.71
352.23	75.7113
351.7254	76.1717
351.221	76.49
350.716	76.8452
350.2117	77.2209
349.707	77.5925
349.202	77.9447
348.698	78.2594
348.193	78.5799
347.688	78.7362
347.186	78.84993
346.681	78.6392
346.176	78.44767
345.671	78.18322
345.166	77.89003
344.661	77.58
344.1564	77.2883
343.651	76.9516
343.146	76.6231
342.641	76.2926
342.136	76.0127
341.631	75.6323
341.126	75.4296
340.621	75.4096
340.116	75.3773
339.611	75.3623
339.106	75.4029
338.6	75.4697
338.095	75.5297
337.59	75.6544
337.084	75.7862
336.577	75.9481
336.072	76.11203
335.566	76.2868
335.061	76.4917
334.555	76.598
334.05	76.6815
333.544	76.7628
333.039	76.8531
332.5332	76.9126
332.028	76.78846
331.522	76.7601
331.014	76.6978
330.509	76.7424
330.003	76.7954
329.497	76.9787
328.991	77.3048
328.486	77.6548
327.98	78.3882
327.474	78.9206
326.966	79.4389
326.46	79.86219
325.9541	80.2339
325.448	80.4839
324.942	80.21653
324.434	80.0109
323.928	79.64389
323.422	79.2469
322.916	78.6963
322.41	78.0243
321.902	77.20623
321.395	76.1732
320.889	74.7369
320.383	76.5507
319.877	78.72583
319.368	78.7583
318.862	78.8347
318.356	79.2602
317.849	79.7729
317.341	80.71566
316.834	80.9934
316.328	81.0157
315.819	81.0188
315.313	81.0604
314.806	81.0482
314.3	80.9299
313.791	80.7072
313.284	80.3041
312.778	79.8226
312.269	79.1569
311.762	78.4251
311.255	78.0834
310.747	77.9871
310.24	78.2382
309.733	78.3227
309.224	78.7996
308.717	79.452
308.2103	80.1622
307.701	80.742
307.194	81.2933
306.685	81.8864
306.178	82.626
305.6712	84.2905
305.162	85.5917
304.655	86.387
304.146	86.6784
303.639	86.4696
303.131	85.4319
302.6221	84.8975
302.115	84.23
301.6055	83.208
301.098	82.0748
300.589	81.9528
300.081	81.8505
299.5741	81.6753
299.065	81.5572
298.557	81.5531
298.048	81.693
297.54	81.9888
297.031	82.52932
296.523	83.2147
296.013	84.0919
295.506	84.9715
294.996	85.0497
294.488	84.8493
293.979	84.4502
293.471	83.8533
292.961	83.0726
292.453	82.129
291.943	81.1072
291.436	79.8075
290.926	78.4545
290.416	77.1139
289.908	76.1274
289.398	75.36219
288.89	74.6091
288.38	74.1106
287.872	74.1177
287.362	74.2671
286.851	74.4122
286.343	74.4692
285.833	74.5915
285.325	74.7188
284.815	74.9006
284.304	75.1957
283.796	75.4368
283.286	75.4493
282.777	75.3198
282.267	74.8637
281.7565	74.36422
281.248	74.0466
280.738	73.8126
280.227	73.6296
279.719	73.5379
279.208	73.505
278.697	73.5452
278.189	73.7633
277.678	73.9384
277.168	73.7264
276.657	73.5201
276.148	73.4204
275.637	73.6749
275.127	73.9154
274.618	74.0972
274.1069	74.083
273.596	73.8964
273.085	73.4557
272.576	72.9478
272.065	72.4773
271.554	72.4114
271.043	72.4992
270.534	72.6701
270.023	72.559
269.512	72.4249
269.001	72.2648
268.492	72.0956
267.981	71.7954
267.469	71.503
266.958	71.2064
266.447	70.9928
265.938	70.9877
265.426	71.0351
264.915	71.11908
264.403	71.208
263.892	71.0588
263.381	70.7665
262.871	70.5415
262.36	70.3112
261.848	70.2711
261.337	70.3013
260.825	69.9533
260.313	69.5046
259.802	69.0387
259.292	68.7325
258.78	68.60717
258.269	68.5098
257.757	68.4948
257.245	68.6802
256.733	69.1092
256.221	69.5748
255.709	70.0658
255.198	70.5313
254.686	71.0059
254.174	71.4425
253.662	71.7347
253.1517	71.8656
252.64	71.7703
252.128	71.5459
251.615	71.1714
251.103	70.8337
250.591	70.4258
250.079	70.1287
249.567	69.7325
249.054	69.5281
248.542	69.526
248.03	69.6274
247.518	69.75843
247.0052	69.85495
246.493	70.0297
245.98	70.2218
245.468	70.3988
244.955	70.5995
244.443	70.90918
243.93	70.9655
243.418	71.009
242.905	71.0374
242.391	71.0204
241.8779	70.815
241.365	70.7312
240.853	70.5651
240.34	70.4456
239.827	70.4141
239.314	70.36866
238.801	70.4602
238.289	71.0304
237.7757	71.5229
237.2628	72.0435
236.748	72.585
236.2348	73.00264
235.722	73.323
235.2088	73.5278
234.696	72.8599
234.183	72.2484
233.67	71.4044
233.154	70.3784
232.641	69.0793
232.128	68.27607
231.615	67.5079
231.102	66.6993
230.588	65.9731
230.073	65.22496
229.56	64.8554
229.046	65.0216
228.533	65.6737
228.019	66.82019
227.504	67.8369
226.99	68.7566
226.477	69.5316
225.963	70.2253
225.45	70.7852
224.9341	71.1921
224.42	71.5564
223.907	71.4843
223.393	71.3453
222.877	71.1052
222.364	70.8
221.85	70.4578
221.334	69.9461
220.82	69.641
220.306	69.2928
219.792	69.0212
219.276	69.1014
218.763	69.1072
218.2486	68.9664
217.7325	68.7557
217.218	68.5479
216.704	68.2844
216.188	68.0439
215.674	67.7684
215.16	67.4721
214.6438	67.3079
214.13	67.2355
213.6154	67.2332
213.099	67.2188
212.585	67.4504
212.07	67.4581
211.554	67.4721
211.0397	67.4458
210.523	67.4301
210.0088	67.3791
209.494	67.338
208.978	67.2501
208.463	67.0789
207.947	66.9325
207.4321	66.7067
206.918	66.5575
206.4008	66.4008
205.886	66.27211
205.369	66.1972
204.855	66.0786
204.338	65.9837
203.8231	65.9155
203.306	65.81208
202.791	65.71096
202.277	65.6059
201.7596	65.49688
201.245	65.3684
200.728	65.23378
200.213	65.10199
199.696	64.9473
199.1806	64.8141
198.663	64.6614
198.148	64.523
197.631	64.37001
197.114	64.2401
196.5988	64.1721
196.0815	64.0509
195.5663	64.1511
195.049	64.0859
194.534	64.0265
194.016	63.9313
193.501	63.7856
192.983	63.6842
192.468	63.5452
191.951	63.4485
191.433	63.3354
190.918	63.2312
190.4	63.1658
189.884	63.12
189.367	63.1476
188.849	63.2012
188.333	63.3475
187.816	63.5217
187.3	63.8121
186.782	64.6644
186.264	65.2828
185.749	66.03981
185.231	66.9706
184.7128	67.6424
184.197	65.8752
183.679	64.5054
183.161	63.4208
182.645	62.4271
182.127	61.8676
181.609	61.98901
181.093	62.0409
180.575	61.9957
180.057	61.8978
179.54	61.7915
179.022	61.7661
178.504	61.8493
177.986	61.9693
177.469	62.1018
176.951	62.278
176.433	62.4214
175.914	63.3253
175.3979	62.0968
174.879	61.2059
174.361	60.522
173.842	59.4256
173.326	58.9911
172.807	59.6861
172.289	60.5743
171.77	61.55468
171.254	63.3685
170.735	64.4047
170.216	63.8181
169.697	64.1578
169.179	64.5725
168.662	65.0098
168.143	65.43013
167.624	65.7078
167.105	65.941
166.586	66.1132
166.067	66.2896
165.55	66.0979
165.031	65.9094
164.512	65.9987
163.9933	66.0535
163.4742	66.0185
162.955	65.8228
162.4359	65.5501
161.9167	65.1535
161.3996	64.69342
160.88	64.2196
160.361	63.7913
159.842	63.5208
159.3224	63.4844
158.803	63.5219
158.284	63.5359
157.764	63.4629
157.245	63.3808
156.725	63.32518
156.206	63.25758
155.686	63.1352
155.169	62.7275
154.649	62.1906
154.13	61.7125
153.61	61.2835
153.09	60.97134
152.57	60.7858
152.051	60.7854
151.531	60.8789
151.011	61.3106
150.491	61.984
149.971	62.6604
149.452	63.2042
148.932	63.6099
148.412	63.8911
147.892	64.0191
147.372	64.0849
146.8517	63.939
146.332	63.7045
145.812	63.4006
145.289	63.0791
144.769	62.7671
144.249	62.4822
143.729	62.1997
143.209	62.0191
142.688	61.8069
142.168	61.9047
141.648	62.0353
141.127	62.2735
140.607	62.6186
140.086	63.0422
139.566	63.5429
139.046	64.1081
138.523	64.8228
138.002	65.7173