File: bartels lab/3642 MoS2 on 1012 WG/raman1_dominic/R2_C1/3642 R2C1 waveguide 2928x 4380y Raman 1800 t2 d1 100x.txt
650.268	73.2269
649.786	74.1
649.306	74.9836
648.823	75.7327
648.343	76.4844
647.863	77.1298
647.38	77.7697
646.9	78.3473
646.417	78.7395
645.937	79.1242
645.4541	79.3839
644.974	79.4439
644.491	79.4934
644.01	79.6691
643.528	79.2878
643.047	78.9115
642.564	78.4885
642.084	78.0453
641.601	77.61
641.12	77.14695
640.637	76.6938
640.156	76.2996
639.674	76.1402
639.193	76.0514
638.71	76.1058
638.227	76.5099
637.746	76.9882
637.263	77.435
636.782	77.965
636.299	78.4784
635.818	79.00808
635.335	79.5364
634.852	80.041
634.371	80.5106
633.887	80.6093
633.406	80.6581
632.9231	80.6605
632.44	80.2846
631.959	79.8208
631.475	79.3023
630.992	78.7923
630.511	78.2916
630.027	77.7941
629.544	77.3173
629.0625	77.2315
628.579	77.241
628.096	77.2957
627.614	77.5084
627.131	77.75827
626.647	78.1327
626.163	78.5154
625.682	78.9799
625.198	79.4767
624.7146	79.9635
624.233	80.4361
623.749	80.8711
623.2655	81.08593
622.782	81.1499
622.3	81.188
621.816	81.2388
621.332	81.2289
620.849	81.3676
620.367	81.6334
619.883	81.7164
619.3988	81.721
618.915	81.5713
618.431	81.4725
617.949	81.4559
617.465	81.486
616.981	81.66069
616.4967	81.2954
616.013	80.63578
615.528	80.0435
615.046	79.549
614.562	79.2103
614.078	78.9039
613.594	79.20916
613.109	79.5181
612.625	79.9624
612.141	80.4015
611.656	80.823
611.174	81.2476
610.69	81.5882
610.205	81.8284
609.721	81.94313
609.236	82.05397
608.752	81.7181
608.267	81.3031
607.783	80.8233
607.298	80.3717
606.814	79.8967
606.329	79.3785
605.844	79.00602
605.36	78.7047
604.875	78.7653
604.39	78.777
603.9054	78.7834
603.421	78.9547
602.936	79.11792
602.451	79.3182
601.966	79.5192
601.4812	79.7436
600.996	79.9391
600.511	80.1667
600.026	80.3392
599.541	80.5541
599.0564	80.6832
598.571	80.818
598.0863	80.9204
597.6012	80.9897
597.116	81.0227
596.631	81.0578
596.146	81.0166
595.661	80.9886
595.175	80.8897
594.69	80.8373
594.205	80.54
593.717	80.1647
593.232	79.7552
592.747	79.3739
592.261	78.8397
591.776	78.4216
591.291	77.9581
590.805	77.4976
590.32	77.20681
589.832	77.3566
589.347	77.5879
588.861	77.7921
588.375	78.035
587.89	78.2551
587.404	78.4933
586.9165	78.7171
586.431	78.9262
585.945	79.1339
585.459	79.292
584.974	79.3307
584.486	79.3437
584	79.2242
583.5141	79.06028
583.0282	78.7816
582.54	78.38134
582.054	77.9738
581.568	77.4007
581.082	76.8292
580.594	76.15847
580.1084	75.4456
579.622	74.6967
579.136	74.0317
578.648	74.0027
578.162	74.271
577.676	74.7112
577.188	75.452
576.701	76.4842
576.215	77.6381
575.727	78.6276
575.2406	79.0281
574.754	79.4773
574.266	80.1978
573.7796	80.0555
573.293	79.7892
572.805	79.4039
572.3183	79.02552
571.832	78.6885
571.343	78.37471
570.857	78.3714
570.368	78.3594
569.882	78.4978
569.395	78.6875
568.906	79.0026
568.42	79.4899
567.931	80.0805
567.444	80.7197
566.958	81.4351
566.469	82.1079
565.982	82.28302
565.493	82.384
565.006	82.7364
564.517	83.2956
564.031	83.0619
563.542	82.4851
563.055	81.5444
562.568	80.3309
562.079	79.0763
561.592	75.4314
561.103	77.2069
560.6156	78.9298
560.126	79.1415
559.639	79.38092
559.15	79.24427
558.661	77.9319
558.174	77.7021
557.685	76.7261
557.197	75.3177
556.708	74.26474
556.221	76.4382
555.731	79.2311
555.244	83.5663
554.755	85.7283
554.265	86.1329
553.778	85.9278
553.288	85.22818
552.801	83.44265
552.311	81.575
551.822	80.2552
551.334	79.354
550.844	78.8735
550.357	79.1153
549.867	79.9411
549.377	80.652
548.89	81.8616
548.4	82.4151
547.91	82.5373
547.422	82.5725
546.933	82.6219
546.443	82.663
545.955	82.7526
545.465	82.88195
544.975	83.0563
544.487	83.3347
543.997	83.6655
543.507	84.0572
543.019	84.4952
542.529	85.0405
542.039	85.6259
541.549	86.47538
541.061	87.3211
540.5705	88.3257
540.08	89.379
539.59	90.4543
539.102	91.618
538.612	92.7561
538.121	93.92466
537.631	95.0998
537.141	96.2349
536.652	97.057
536.1618	97.8125
535.671	98.5656
535.181	99.3015
534.69	100.017
534.202	100.797
533.711	101.916
533.221	103.387
532.73	105.6153
532.24	108.092
531.751	111.094
531.26	113.044
530.77	116.1247
530.279	118.96
529.788	123.5368
529.297	129.3774
528.807	133.843
528.316	140.11
527.8269	147.122
527.336	157.606
526.845	168.752
526.354	183.838
525.863	202.532
525.372	226.811
524.881	261.731
524.3902	302.288
523.899	360.494
523.408	458.568
522.917	584.914
522.426	764.007
521.935	1046.23
521.443	1400.32
520.952	1813.26
520.461	1975
519.9696	2082
519.478	1755
518.987	1365
518.496	993.1
518.004	779.507
517.513	604.029
517.021	455.816
516.53	367.43
516.038	314.447
515.547	261.354
515.055	230.42
514.564	206.799
514.0722	187.874
513.581	169.783
513.089	156.327
512.597	143.49
512.106	134.3887
511.6138	128.006
511.122	123.1958
510.63	117.602
510.138	118.484
509.645	117.71
509.153	115.756
508.661	113.639
508.169	108.1971
507.677	105.037
507.185	102.426
506.693	99.8319
506.201	97.48159
505.707	95.397
505.215	93.4939
504.723	91.69796
504.231	90.0099
503.738	88.857
503.246	87.8545
502.752	86.972
502.2598	86.1847
501.768	85.5197
501.275	84.9122
500.783	84.4071
500.289	83.9448
499.796	83.5101
499.3038	83.0044
498.811	82.4727
498.317	82.0392
497.824	81.6888
497.332	81.3682
496.839	81.10804
496.345	80.8859
495.852	80.5812
495.36	80.5548
494.867	80.5987
494.372	80.66777
493.88	80.8144
493.3869	80.9769
492.892	81.1424
492.399	81.4274
491.907	81.5781
491.412	81.6887
490.919	81.78756
490.426	81.4267
489.931	81.2568
489.438	81.1269
488.945	81.00264
488.45	80.9247
487.957	80.8371
487.464	80.8193
486.969	80.7631
486.476	80.8323
485.983	81.0299
485.488	81.2384
484.994	81.5149
484.499	81.735
484.006	81.9751
483.513	82.19059
483.017	82.38768
482.524	82.4867
482.029	82.4331
481.535	81.7626
481.04	80.62149
480.547	79.191
480.053	77.5314
479.558	75.6105
479.064	74.19603
478.569	73.4284
478.075	73.1528
477.58	73.3602
477.086	73.9613
476.59	74.764
476.097	75.5528
475.601	76.3193
475.107	77.0247
474.611	77.7458
474.118	78.6637
473.622	79.6187
473.128	80.633
472.6322	81.4097
472.138	80.4808
471.6424	80.4891
471.146	80.5793
470.653	80.7304
470.156	80.9339
469.663	81.1846
469.166	81.5099
468.672	81.9468
468.1763	82.1804
467.68	82.3731
467.186	82.5496
466.69	82.7275
466.196	82.8875
465.6994	83.0334
465.203	83.2284
464.709	83.4069
464.213	83.6234
463.716	83.8312
463.222	84.0769
462.7254	84.2855
462.231	84.729
461.735	85.3473
461.238	86.1961
460.744	87.0088
460.247	87.83049
459.75	88.6235
459.254	89.4375
458.759	90.1982
458.263	90.93544
457.766	91.3401
457.2713	91.4465
456.775	91.4825
456.2778	91.442
455.783	91.3762
455.286	91.2324
454.7894	91.0518
454.293	90.708
453.7977	90.5487
453.301	90.4105
452.8038	90.2874
452.307	90.3689
451.81	90.4662
451.315	90.5057
450.818	90.57132
450.321	90.5704
449.824	90.609
449.329	90.5938
448.831	90.5974
448.334	90.5535
447.837	90.5303
447.34	90.4698
446.842	90.4242
446.347	90.3428
445.85	90.2888
445.352	90.0524
444.8551	89.8161
444.3577	89.7637
443.86	89.7634
443.363	89.73156
442.867	89.7409
442.37	89.7204
441.872	89.74118
441.375	89.8496
440.877	89.8225
440.379	89.7628
439.882	89.66304
439.384	89.3882
438.886	89.1161
438.389	88.4615
437.891	87.8433
437.395	87.2657
436.897	86.7079
436.3996	86.1881
435.902	85.6748
435.404	85.2416
434.906	85.1115
434.408	85.0323
433.91	85.0998
433.412	85.2653
432.914	85.5237
432.416	85.8536
431.918	86.1666
431.42	86.2369
430.922	86.31263
430.4234	86.0524
429.9252	85.261
429.427	84.39341
428.929	83.5601
428.43	82.6868
427.932	81.9352
427.434	81.3091
426.935	80.7761
426.435	80.4889
425.937	80.271
425.4382	80.2916
424.94	80.3902
424.441	80.7017
423.943	81.1788
423.444	81.7404
422.946	82.5266
422.447	83.4147
421.948	84.4265
421.45	85.5271
420.949	86.6932
420.45	87.5997
419.952	88.5592
419.453	89.6386
418.954	90.781
418.4552	91.7387
417.956	92.3158
417.455	92.8827
416.957	93.8893
416.458	94.868
415.959	98.6633
415.46	98.393
414.961	99.2029
414.46	99.3872
413.961	99.8642
413.461	101.407
412.962	104.068
412.461	108.18
411.962	113.669
411.463	120.763
410.964	130.596
410.464	144.886
409.963	157.773
409.464	177.354
408.964	197.928
408.465	222.932
407.964	257.67
407.464	281.23
406.965	299.744
406.463	280.505
405.964	272.94
405.464	264.388
404.9646	241.438
404.463	216.177
403.963	190.938
403.464	167.3275
402.962	144.807
402.462	132.5018
401.963	121.076
401.461	114.105
400.961	108.734
400.461	104.664
399.959	102.584
399.46	100.21
398.958	97.8508
398.4577	95.25943
397.958	93.0778
397.456	88.108
396.956	86.4703
396.454	84.9562
395.954	83.8908
395.454	83.4794
394.951	83.1596
394.451	82.9218
393.9491	82.8035
393.449	82.7004
392.949	82.5559
392.446	82.2572
391.946	81.75473
391.444	81.1386
390.944	81.2467
390.441	81.5365
389.941	82.1898
389.438	85.178
388.938	86.9815
388.435	90.816
387.935	95.27269
387.432	100.425
386.932	106.267
386.429	112.935
385.929	120.221
385.4259	126.566
384.925	132.04
384.423	140.3616
383.922	144.46
383.419	146.562
382.918	146.995
382.4155	145.769
381.915	143.3542
381.4118	137.394
380.909	133.437
380.408	128.845
379.905	123.302
379.404	117.243
378.901	111.875
378.398	107.044
377.897	102.929
377.394	99.5857
376.893	97.026
376.39	95.3752
375.886	95.1901
375.385	93.5462
374.882	92.1974
374.379	91.0393
373.877	90.1534
373.374	89.4158
372.871	89.1188
372.369	88.5075
371.866	87.5164
371.363	86.4423
370.861	85.3977
370.3577	84.4122
369.854	83.2081
369.353	82.1179
368.849	81.1572
368.345	80.6716
367.844	80.8757
367.34	81.1392
366.837	81.0481
366.333	80.945
365.831	80.7174
365.327	80.515
364.824	80.6422
364.32	81.0826
363.818	81.0125
363.314	80.9009
362.81	80.7769
362.306	80.7403
361.804	80.7523
361.3	80.8891
360.796	81.1038
360.292	81.1758
359.788	80.99028
359.286	81.6607
358.782	82.2794
358.278	82.7106
357.774	83.0227
357.269	83.1132
356.765	82.8339
356.263	81.9682
355.759	80.7859
355.254	78.8588
354.75	77.4349
354.246	77.1458
353.741	77.0672
353.237	77.0356
352.734	76.9869
352.23	76.9847
351.7254	77.0343
351.221	77.1754
350.716	77.4349
350.2117	77.85656
349.707	78.7309
349.202	79.5207
348.698	79.7125
348.193	79.5891
347.688	78.8019
347.186	78.031
346.681	77.402
346.176	77.0551
345.671	77.14032
345.166	77.4918
344.661	78.2812
344.1564	79.409
343.651	80.67466
343.146	81.7585
342.641	82.1896
342.136	83.2055
341.631	84.1364
341.126	85.0686
340.621	85.774
340.116	86.23201
339.611	86.3543
339.106	86.3771
338.6	85.3265
338.095	84.1017
337.59	82.8336
337.084	81.5662
336.577	80.5228
336.072	79.583
335.566	78.8853
335.061	78.286
334.555	78.079
334.05	78.0132
333.544	78.2107
333.039	78.4255
332.5332	78.8119
332.028	79.2304
331.522	79.6807
331.014	80.1624
330.509	80.6817
330.003	80.8846
329.497	80.8613
328.991	80.7422
328.486	80.5657
327.98	80.3814
327.474	80.1468
326.966	79.8885
326.46	79.9033
325.9541	79.9378
325.448	79.993
324.942	80.1665
324.434	80.3072
323.928	80.6738
323.422	81.124
322.916	81.6122
322.41	82.1208
321.902	82.6262
321.395	83.1503
320.889	83.6741
320.383	84.1819
319.877	84.6476
319.368	84.9975
318.862	85.2084
318.356	85.1799
317.849	85.1829
317.341	85.1227
316.834	85.0019
316.328	84.8968
315.819	84.7472
315.313	84.571
314.806	84.4357
314.3	84.1848
313.791	83.8021
313.284	83.6341
312.778	83.60405
312.269	83.6964
311.762	83.8835
311.255	84.3545
310.747	84.71843
310.24	85.1062
309.733	85.4953
309.224	85.7791
308.717	86.0959
308.2103	86.4094
307.701	86.7118
307.194	86.9739
306.685	87.2785
306.178	87.48938
305.6712	87.7539
305.162	87.9479
304.655	88.1621
304.146	88.3218
303.639	88.4586
303.131	88.5569
302.6221	88.5749
302.115	88.5566
301.6055	88.4198
301.098	88.1994
300.589	87.9297
300.081	87.5043
299.5741	86.7785
299.065	85.7032
298.557	84.3073
298.048	83.04792
297.54	81.9997
297.031	80.868
296.523	79.8041
296.013	79.0102
295.506	78.4669
294.996	78.1183
294.488	77.784
293.979	77.39135
293.471	77.9329
292.961	78.8047
292.453	79.6603
291.943	80.5092
291.436	81.2241
290.926	81.90757
290.416	82.5077
289.908	83.0403
289.398	83.4497
288.89	83.8118
288.38	84.0631
287.872	84.2562
287.362	84.4367
286.851	84.4885
286.343	84.3855
285.833	84.3008
285.325	84.0055
284.815	83.7658
284.304	83.1212
283.796	82.41
283.286	81.6333
282.777	80.8096
282.267	79.9742
281.7565	79.1143
281.248	78.2371
280.738	77.3782
280.227	76.5027
279.719	76.0421
279.208	75.3968
278.697	74.9034
278.189	74.565
277.678	74.1847
277.168	73.9334
276.657	73.733
276.148	73.5938
275.637	73.4995
275.127	73.4537
274.618	73.4321
274.1069	73.48262
273.596	73.5766
273.085	73.7573
272.576	74.0027
272.065	74.3648
271.554	75.1577
271.043	75.868
270.534	76.3414
270.023	76.1551
269.512	75.8783
269.001	75.5409
268.492	75.3607
267.981	75.111
267.469	75.0564
266.958	75.043
266.447	74.9023
265.938	74.6601
265.426	74.1318
264.915	73.206
264.403	73.0065
263.892	72.861
263.381	73.005
262.871	73.1184
262.36	73.1229
261.848	73.12674
261.337	73.09211
260.825	73.0618
260.313	73.006
259.802	72.9431
259.292	72.8867
258.78	72.7966
258.269	72.72184
257.757	72.5943
257.245	72.4653
256.733	72.2942
256.221	72.112
255.709	71.922
255.198	71.6993
254.686	71.5391
254.174	71.1588
253.662	70.8122
253.1517	70.4146
252.64	70.0456
252.128	69.6645
251.615	69.29953
251.103	68.9486
250.591	68.6812
250.079	68.5598
249.567	68.4365
249.054	68.6389
248.542	69.1263
248.03	69.7576
247.518	70.4578
247.0052	71.1663
246.493	71.8209
245.98	72.3713
245.468	72.9243
244.955	73.1254
244.443	73.2633
243.93	73.0421
243.418	72.8203
242.905	72.5758
242.391	72.3018
241.8779	72.03923
241.365	71.7637
240.853	71.6106
240.34	71.5451
239.827	71.6611
239.314	71.8536
238.801	72.1651
238.289	72.4806
237.7757	72.7738
237.2628	73.1033
236.748	73.4461
236.2348	73.7426
235.722	74.1087
235.2088	74.4699
234.696	74.7996
234.183	75.1237
233.67	75.3942
233.154	75.6071
232.641	75.7306
232.128	75.8425
231.615	75.9016
231.102	75.9534
230.588	75.9746
230.073	75.8262
229.56	75.7068
229.046	75.24321
228.533	74.725
228.019	74.0252
227.504	73.3009
226.99	72.6371
226.477	71.9573
225.963	71.3055
225.45	70.7004
224.9341	70.1123
224.42	69.9794
223.907	69.757
223.393	69.6537
222.877	69.6333
222.364	69.6655
221.85	69.7107
221.334	69.7382
220.82	69.7845
220.306	69.8124
219.792	69.8183
219.276	69.81739
218.763	69.5955
218.2486	69.3927
217.7325	69.1314
217.218	68.8269
216.704	68.4843
216.188	68.0938
215.674	67.6888
215.16	67.2242
214.6438	66.73217
214.13	66.2333
213.6154	65.7733
213.099	67.2083
212.585	67.0439
212.07	66.8386
211.554	66.59108
211.0397	66.2279
210.523	65.8279
210.0088	65.5222
209.494	65.318
208.978	65.2568
208.463	65.5596
207.947	65.9836
207.4321	66.5381
206.918	67.2031
206.4008	67.7432
205.886	67.9049
205.369	67.5883
204.855	67.3882
204.338	67.1306
203.8231	66.95871
203.306	66.8054
202.791	66.623
202.277	66.4299
201.7596	66.1991
201.245	65.8529
200.728	65.3314
200.213	64.6759
199.696	64.1318
199.1806	63.77858
198.663	63.825
198.148	63.9594
197.631	64.1283
197.114	64.3683
196.5988	64.3217
196.0815	64.2144
195.5663	64.0585
195.049	63.9109
194.534	63.71384
194.016	63.56459
193.501	63.3566
192.983	63.1357
192.468	62.8885
191.951	62.8717
191.433	62.94976
190.918	62.999
190.4	63.1995
189.884	63.3248
189.367	63.50663
188.849	63.6808
188.333	63.8459
187.816	64.0111
187.3	64.1617
186.782	64.3143
186.264	64.4489
185.749	64.5741
185.231	64.6802
184.7128	64.7913
184.197	64.7753
183.679	64.659
183.161	64.5824
182.645	64.4505
182.127	64.3037
181.609	64.1064
181.093	63.9403
180.575	63.7309
180.057	63.5448
179.54	63.3689
179.022	63.2175
178.504	63.142
177.986	63.4905
177.469	63.9167
176.951	64.4232
176.433	64.9889
175.914	65.7592
175.3979	68.338
174.879	68.0928
174.361	67.6313
173.842	66.875
173.326	65.99128
172.807	65.1019
172.289	64.2661
171.77	63.6447
171.254	63.3107
170.735	63.2057
170.216	63.3013
169.697	64.8199
169.179	65.1744
168.662	65.1768
168.143	65.0321
167.624	64.8016
167.105	64.6305
166.586	64.5122
166.067	64.3965
165.55	64.3065
165.031	64.2217
164.512	64.1636
163.9933	64.1052
163.4742	64.0785
162.955	64.0466
162.4359	64.06134
161.9167	64.0747
161.3996	64.1166
160.88	64.171
160.361	64.3174
159.842	64.3167
159.3224	64.2853
158.803	64.2443
158.284	64.1857
157.764	64.1589
157.245	64.0865
156.725	64.05249
156.206	63.9189
155.686	63.9714
155.169	64.1982
154.649	64.4391
154.13	65.0595
153.61	65.4916
153.09	65.9242
152.57	66.2482
152.051	66.5797
151.531	66.9391
151.011	67.01635
150.491	66.8361
149.971	66.6668
149.452	66.4051
148.932	66.1413
148.412	65.7944
147.892	65.4341
147.372	65.0328
146.8517	64.619
146.332	64.1951
145.812	63.7901
145.289	63.3774
144.769	63.1644
144.249	62.8832
143.729	62.4916
143.209	62.1951
142.688	61.898
142.168	61.6312
141.648	61.4271
141.127	61.248
140.607	61.128
140.086	61.059
139.566	61.1353
139.046	62.0486
138.523	63.0174
138.002	64.4275