File: bartels lab/3642 MoS2 on 1012 WG/Raman_5_21_2015_Dominic/C3_R2/python files used/3642_8401x_3256y/3642 8401x 3250y PL 600 T2 D1 100x.txt
1.77173	2704
1.77186	2728.95
1.77199	2738.25
1.77212	2733.22
1.772251	2732.26
1.77238	2735.95
1.772512	2741.88
1.77264	2748.09
1.77277	2755.99
1.7729	2762.24
1.77303	2769.59
1.77316	2774.83
1.7733	2779.74
1.77343	2782.81
1.77356	2788.644
1.77369	2792.11
1.77382	2793.88
1.77395	2796.46
1.77408	2797.94
1.77421	2799.41
1.77434	2801.06
1.77447	2804.812
1.7746	2809.564
1.77473	2816.59
1.774864	2821.51
1.77499	2828.72
1.77513	2835.79
1.77526	2843.76
1.77539	2852.531
1.77552	2861.14
1.77565	2868.21
1.77578	2875.91
1.77591	2882.31
1.77604	2885.947
1.77617	2889.3
1.7763	2890.52
1.77644	2891.95
1.77657	2893.69
1.776698	2891.24
1.77683	2887.69
1.77696	2883.65
1.77709	2883.04
1.77722	2884.63
1.777354	2888.68
1.77749	2890.69
1.77762	2895.605
1.77775	2900.67
1.77788	2907.78
1.77801	2916.18
1.77814	2925.21
1.77827	2931.88
1.7784	2939.8
1.778536	2949.04
1.77867	2957.623
1.7788	2962.67
1.77893	2966.95
1.77906	2970.29
1.77919	2972.33
1.77933	2972.83
1.77946	2975.553
1.77959	2978.7
1.77972	2983.03
1.77985	2989.22
1.77998	2996.18
1.78011	3002.1
1.78025	3010.56
1.78038	3018.1
1.78051	3027.58
1.78064	3036.06
1.78077	3046.12
1.78091	3054.36
1.78104	3063.13
1.78117	3070.38
1.781301	3071.72
1.78143	3072.16
1.78156	3073.22
1.7817	3073.7
1.78183	3072.082
1.78196	3069.1
1.78209	3068.2
1.78222	3067.45
1.78236	3068.22
1.78249	3066.4
1.78262	3065.12
1.782753	3063.84
1.782885	3065.55
1.78302	3068.77
1.78315	3071.83
1.78328	3074.2
1.78341	3078.94
1.783546	3084.97
1.78368	3092.707
1.78381	3098.87
1.78394	3104.95
1.784075	3109.62
1.78421	3116.23
1.78434	3121.45
1.78447	3128.02
1.7846	3135.24
1.78474	3141.76
1.78487	3148.71
1.785	3154.18
1.78513	3159.93
1.78527	3166.19
1.7854	3171.42
1.785532	3178.45
1.78566	3185.17
1.7858	3189.68
1.78593	3193.8
1.78606	3198.81
1.7862	3202.01
1.78633	3205.78
1.78646	3208.9
1.78659	3209.09
1.78673	3210.46
1.78686	3212.94
1.78699	3218.34
1.78712	3226.105
1.78726	3230.94
1.78739	3234.75
1.78752	3239.446
1.78766	3242.345
1.78779	3245.42
1.78792	3246.77
1.78805	3248
1.78819	3252.4
1.78832	3256.6
1.78845	3261.66
1.78859	3267.99
1.78872	3274.86
1.78885	3281.65
1.78899	3291.14
1.78912	3299.87
1.78925	3308.2
1.78939	3318.44
1.78952	3327.959
1.78965	3337.21
1.78978	3345.97
1.78992	3351.187
1.79005	3357.71
1.79018	3364.39
1.79032	3370.12
1.79045	3375.45
1.79058	3383.29
1.79072	3389.38
1.79085	3396.313
1.79098	3403.78
1.79112	3412.88
1.79125	3419.175
1.79139	3426.58
1.79152	3431.14
1.79165	3447.1
1.79179	3450.81
1.79192	3452.24
1.792053	3453.63
1.79219	3456.42
1.79232	3461.05
1.79245	3466.8
1.79259	3473.27
1.79272	3481.6
1.79285	3489.94
1.79299	3498.3
1.79312	3510.46
1.79326	3523.18
1.79339	3535.45
1.79352	3549.1
1.79366	3559.81
1.79379	3571.12
1.79393	3582.3
1.79406	3593.94
1.79419	3601.77
1.79433	3610.95
1.79446	3614.73
1.7946	3620.24
1.79473	3627.4
1.79486	3636.77
1.795	3646
1.79513	3658.4
1.79527	3669.47
1.7954	3679.793
1.79553	3692.05
1.79567	3705.11
1.7958	3716.47
1.79594	3728.05
1.79607	3738.99
1.796205	3751.56
1.79634	3763.6
1.79647	3776.57
1.79661	3784.446
1.79674	3793.38
1.79688	3799.1
1.797011	3805.94
1.79715	3812.27
1.79728	3821.02
1.79741	3829.16
1.79755	3835.69
1.79768	3843.14
1.79782	3850.78
1.79795	3858.51
1.79809	3864.73
1.79822	3873.06
1.79836	3877.94
1.79849	3884.23
1.79863	3893.04
1.79876	3904.61
1.79889	3919.146
1.79903	3932.11
1.79916	3940.67
1.799299	3945.6
1.79943	3954.95
1.79957	3959.07
1.7997	3964.2
1.79984	3968.05
1.799973	3973.41
1.800108	3978.02
1.80024	3983.39
1.80038	3988.01
1.80051	3993.34
1.80065	3999.73
1.80078	4008.19
1.80092	4016.55
1.80105	4024.35
1.80119	4034.73
1.80132	4046.33
1.801458	4056.2
1.80159	4065.65
1.80173	4069.64
1.80186	4076.1
1.802	4084.37
1.80213	4094.55
1.80227	4101.46
1.8024	4107.7
1.80254	4115.22
1.802675	4120.01
1.80281	4122.37
1.80295	4126.01
1.803081	4129.502
1.80322	4135.14
1.80335	4142
1.80349	4151.26
1.80362	4165.7
1.80376	4175.77
1.80389	4185.99
1.80403	4197.42
1.80416	4205.92
1.8043	4213.59
1.80444	4219.51
1.80457	4225.66
1.80471	4226.97
1.80484	4228.82
1.80498	4229.51
1.805114	4226.59
1.80525	4226.93
1.80539	4228.58
1.80552	4230.5
1.80566	4233.42
1.80579	4236.12
1.80593	4240.79
1.80606	4243.69
1.8062	4247.81
1.80634	4250.72
1.80647	4251.33
1.80661	4252.07
1.80674	4255.82
1.80688	4262.88
1.80702	4273.14
1.80715	4282.55
1.80729	4291.562
1.80742	4297.12
1.80756	4302.07
1.8077	4305.92
1.80783	4310.7
1.80797	4314
1.808105	4319.91
1.80824	4323.8
1.80838	4329.61
1.80851	4335.812
1.80865	4341.24
1.80879	4344.44
1.80892	4348.7
1.80906	4349.98
1.8092	4353.29
1.80933	4361.14
1.809468	4371.28
1.8096	4383.4
1.80974	4393.51
1.80988	4404.05
1.81001	4413.17
1.81015	4421.74
1.81029	4432.24
1.81042	4438.897
1.81056	4447.68
1.8107	4455.78
1.81083	4468.34
1.81097	4480.18
1.81111	4486.78
1.81124	4493.31
1.81138	4501.44
1.81152	4512.53
1.81165	4524.18
1.81179	4536.28
1.811927	4549.2
1.81206	4563.68
1.8122	4574.29
1.81234	4584.7
1.81247	4595.21
1.81261	4605.47
1.81275	4617.43
1.81289	4631.42
1.81302	4644.47
1.81316	4652.29
1.8133	4664.05
1.81343	4677.29
1.81357	4690.01
1.81371	4706.24
1.81384	4724.32
1.81398	4745.1
1.81412	4767.45
1.814256	4778.44
1.81439	4783.52
1.81453	4792.67
1.81467	4803.29
1.8148	4809.92
1.81494	4816.375
1.81508	4825.65
1.81522	4845.01
1.81535	4868.33
1.81549	4898.27
1.815629	4942.26
1.81577	4972.22
1.8159	4995.44
1.81604	5018.3
1.81618	5026.12
1.81632	5040.46
1.81645	5050.95
1.81659	5063.46
1.81673	5073.2
1.81687	5089.06
1.817	5104.81
1.81714	5118.49
1.81728	5129.73
1.81742	5138.18
1.817555	5147.17
1.81769	5150.63
1.81783	5161.88
1.817968	5174.37
1.81811	5191.19
1.81824	5212.437
1.81838	5234.81
1.81852	5257.43
1.81866	5281.11
1.8188	5305.54
1.81893	5330.82
1.81907	5353.77
1.81921	5374.94
1.81935	5394.5
1.81949	5413.19
1.81962	5432.86
1.81976	5450.08
1.8199	5464.27
1.82004	5475.24
1.82018	5478.8
1.82031	5485.2
1.820452	5492.86
1.82059	5499.77
1.82073	5504.44
1.82087	5511.77
1.821005	5521.13
1.82114	5531.07
1.82128	5545.06
1.82142	5561.93
1.82156	5582.78
1.8217	5595.63
1.82183	5608.8
1.82197	5623.95
1.822112	5635.57
1.82225	5645.09
1.82239	5657.34
1.82253	5671.897
1.82267	5684.15
1.8228	5697.42
1.822943	5707.27
1.82308	5719.29
1.82322	5733.92
1.82336	5746.05
1.8235	5758.59
1.82364	5772.36
1.82377	5782.395
1.82391	5792.79
1.82405	5803.14
1.82419	5812.21
1.82433	5818.43
1.82447	5825.06
1.82461	5829.01
1.82475	5832.28
1.82489	5838.93
1.82502	5846.4
1.82516	5857.79
1.8253	5869.79
1.82544	5879.97
1.82558	5884.86
1.82572	5888.71
1.82586	5891.49
1.826	5896.8
1.82614	5903.17
1.82628	5907.82
1.82641	5914.28
1.82655	5922.36
1.82669	5932.14
1.82683	5942.13
1.82697	5950.84
1.82711	5962.39
1.82725	5977.59
1.82739	5992.01
1.82753	6004.543
1.82767	6017.18
1.82781	6027.47
1.82795	6037.939
1.82809	6044.68
1.82823	6054.64
1.82837	6064.293
1.82851	6075.9
1.82864	6083.54
1.82878	6092.07
1.82892	6101.76
1.82906	6109.873
1.8292	6119.8
1.82934	6129.46
1.82948	6141.35
1.82962	6152.69
1.82976	6162.479
1.8299	6175.64
1.83004	6190.35
1.83018	6202.31
1.83032	6212.1
1.83046	6219.335
1.8306	6228.104
1.83074	6239.85
1.83088	6252.32
1.83102	6268.04
1.83116	6279.13
1.8313	6291.22
1.83144	6303.29
1.83158	6313.19
1.83172	6326.17
1.83186	6342.32
1.832	6357.85
1.83214	6369.5
1.83228	6380.312
1.83242	6387.75
1.83256	6392.87
1.8327	6399.89
1.83284	6414.35
1.83298	6430.36
1.83312	6446.28
1.83326	6465.625
1.8334	6487.31
1.833542	6509.9
1.83368	6531.147
1.83382	6554.05
1.833963	6575.64
1.8341	6597.76
1.83424	6616.62
1.83438	6637.41
1.83452	6658.62
1.83467	6675.31
1.834806	6691.25
1.83495	6708.34
1.83509	6721.01
1.83523	6732.99
1.83537	6748.54
1.83551	6767.11
1.83565	6788.29
1.83579	6808.25
1.83593	6825.67
1.83607	6843.97
1.83621	6859.14
1.83635	6876.26
1.83649	6890.86
1.83663	6903.65
1.83678	6916.78
1.83692	6930.95
1.83706	6945.561
1.8372	6964.42
1.83734	6982.61
1.83748	6997.28
1.83762	7012.52
1.83776	7032.04
1.8379	7048.45
1.83804	7069.2
1.83819	7088.69
1.83833	7107.29
1.83847	7128.91
1.83861	7149.62
1.83875	7172.15
1.838891	7191.75
1.83903	7209.85
1.83917	7230.63
1.83931	7254.02
1.839456	7276.19
1.8396	7298.43
1.83974	7320.583
1.83988	7336.13
1.84002	7352.36
1.84016	7362.82
1.8403	7372.62
1.84045	7387.32
1.84059	7403.15
1.84073	7417.03
1.84087	7436.582
1.84101	7452.625
1.84115	7469.63
1.84129	7482.89
1.84144	7494.18
1.841578	7504.1
1.84172	7510.63
1.84186	7521.36
1.842	7535.61
1.84214	7549.23
1.84229	7558.57
1.84243	7567.75
1.84257	7575.18
1.84271	7582.52
1.84285	7590.27
1.843	7584.28
1.84314	7590.29
1.84328	7601.87
1.84342	7614.12
1.84356	7630.24
1.84371	7647.35
1.84385	7665.94
1.84399	7682.19
1.84413	7702.43
1.84427	7718.6
1.84442	7734.32
1.84456	7747.14
1.8447	7758.29
1.844842	7766.72
1.84498	7770.22
1.84513	7768.72
1.84527	7769.54
1.84541	7765.67
1.84555	7767.01
1.8457	7767.21
1.84584	7767.13
1.84598	7772.84
1.84612	7780.646
1.84627	7785.93
1.84641	7791.64
1.84655	7795.042
1.84669	7800.87
1.84683	7802.21
1.84698	7803.44
1.84712	7805.96
1.84726	7808.79
1.847405	7809.22
1.84755	7810.7
1.84769	7814.74
1.84783	7816.32
1.84798	7823.89
1.84812	7836.13
1.84826	7849.47
1.8484	7861.93
1.84855	7876.123
1.84869	7891.26
1.84883	7902.1
1.84897	7913.06
1.84912	7924.52
1.84926	7930.3
1.8494	7931
1.84955	7931.31
1.84969	7934.55
1.84983	7936.16
1.84998	7930.937
1.85012	7921.814
1.85026	7910.88
1.8504	7906.8
1.85055	7904.46
1.850691	7903.28
1.85083	7907.873
1.85098	7913.69
1.85112	7924.87
1.85126	7930.17
1.85141	7937.69
1.85155	7946.3
1.85169	7956.54
1.85184	7965.94
1.85198	7973
1.85212	7980.478
1.85227	7987.68
1.85241	7993.23
1.85255	7996.65
1.8527	7996.73
1.85284	7990.79
1.85298	7986.2
1.853128	7987.17
1.85327	7989.12
1.853415	7993.35
1.85356	8000.47
1.8537	8008.72
1.853846	8016.2
1.85399	8019.53
1.85413	8021.99
1.854277	8029.29
1.85442	8027.82
1.85456	8017.85
1.85471	8014.58
1.85485	8011.89
1.855	8007.94
1.85514	8003.83
1.85528	7996.85
1.85543	7988.07
1.85557	7980.38
1.85572	7970.14
1.85586	7965.02
1.856	7963.37
1.85615	7965.98
1.85629	7972.27
1.85644	7978.64
1.85658	7982.29
1.85672	7988.78
1.856868	7995.81
1.85701	7998.9
1.85716	8002.75
1.8573	8005.97
1.85744	8007.3
1.85759	8006.34
1.85773	8006
1.85788	8008.22
1.85802	8007.19
1.85817	8004.6
1.85831	8003.21
1.85846	8001.47
1.8586	7997.92
1.858744	7995.145
1.85889	7994.89
1.859033	7992.09
1.85918	7987.22
1.85932	7979.82
1.85947	7971.28
1.85961	7964.896
1.859756	7956.74
1.8599	7949.332
1.86005	7944.168
1.86019	7936.51
1.86033	7926.34
1.86048	7921.854
1.86062	7916.84
1.86077	7911.23
1.86091	7906.21
1.86106	7905.104
1.8612	7901.24
1.86135	7899.04
1.86149	7901.72
1.86164	7895.05
1.86178	7885.58
1.86193	7875.584
1.86207	7860.51
1.86222	7849.61
1.86236	7838.03
1.86251	7831.66
1.86265	7824.9
1.8628	7818.59
1.86294	7811.1
1.863089	7799.08
1.86323	7793.292
1.86338	7794.74
1.86352	7803.39
1.86367	7803.28
1.86382	7801.47
1.86396	7797.34
1.86411	7791.44
1.86425	7784.78
1.8644	7778.31
1.864542	7777.98
1.86469	7768.791
1.864833	7756.19
1.86498	7741.57
1.865124	7726.2
1.86527	7709.48
1.86542	7691.43
1.86556	7676.82
1.86571	7658.856
1.86585	7644.26
1.866	7631.05
1.86614	7624.84
1.86629	7620.24
1.86643	7620.06
1.86658	7617.6
1.86673	7614.2
1.866872	7614.73
1.86702	7618.53
1.86716	7626.25
1.86731	7633.166
1.86746	7634.93
1.8676	7632.55
1.86775	7629.52
1.86789	7623.12
1.86804	7615.57
1.86819	7606.24
1.86833	7599.4
1.86848	7588.36
1.86862	7575.99
1.86877	7564
1.86892	7553.63
1.86906	7543.582
1.86921	7529.15
1.86935	7513.79
1.8695	7495.981
1.869647	7484
1.86979	7464.9
1.86994	7479.61
1.87009	7477.73
1.87023	7475.05
1.87038	7469.7
1.87053	7463.29
1.87067	7450.74
1.87082	7436.4
1.87096	7421.4
1.871111	7400.99
1.87126	7387.65
1.8714	7373.02
1.87155	7358.09
1.8717	7344.64
1.87184	7331.81
1.87199	7321.74
1.87214	7315.93
1.87228	7306.91
1.87243	7297.228
1.87258	7288.27
1.87272	7278.23
1.87287	7267.812
1.87302	7257.74
1.87316	7250.74
1.87331	7235.24
1.87346	7215.64
1.87361	7205.25
1.87375	7186.603
1.8739	7159.86
1.87405	7128.62
1.87419	7092.3
1.87434	7062.86
1.87449	7038.58
1.87463	7022.77
1.87478	7014.39
1.87493	7012.72
1.87508	7038.09
1.87522	7040.32
1.87537	7032.51
1.87552	7017.01
1.87566	6988.27
1.87581	6967.79
1.87596	6945.86
1.87611	6922.43
1.87625	6917.79
1.8764	6893.83
1.87655	6866.37
1.8767	6836.5
1.87684	6806.9
1.87699	6777.37
1.87714	6747.47
1.87729	6718.86
1.87743	6689.05
1.87758	6661.01
1.87773	6632.5
1.87788	6602.61
1.87802	6573.69
1.87817	6545.74
1.87832	6519.49
1.87847	6494.31
1.87862	6472.34
1.87876	6453.03
1.87891	6433.69
1.87906	6412.05
1.87921	6390.16
1.87935	6368.69
1.8795	6346.88
1.87965	6324.415
1.8798	6299.84
1.87995	6276.94
1.88009	6258.11
1.88024	6238.86
1.88039	6223.481
1.88054	6201.84
1.88069	6180.21
1.88083	6155.72
1.88098	6128.645
1.88113	6100.54
1.881279	6070.01
1.88143	6043.3
1.88158	6014.47
1.88172	5986.07
1.88187	5958.1
1.88202	5933.6
1.88217	5910.02
1.88232	5884.04
1.88247	5856.04
1.882614	5831.64
1.88276	5808.19
1.88291	5787.83
1.88306	5766.18
1.88321	5742.58
1.88336	5718.96
1.88351	5692.86
1.88365	5665.92
1.8838	5642.42
1.88395	5620.7
1.8841	5599.73
1.88425	5576.66
1.8844	5553.64
1.88455	5530.9
1.88469	5510.34
1.88484	5490.19
1.88499	5469.66
1.88514	5448.21
1.88529	5430.97
1.88544	5411.46
1.88559	5392.24
1.88574	5371.998
1.88589	5351.2
1.88603	5330.01
1.88618	5309.603
1.88633	5285.22
1.88648	5261.83
1.88663	5242.62
1.88678	5223.53
1.88693	5201.07
1.88708	5179.35
1.88723	5156.85
1.88738	5136.01
1.887526	5115.35
1.88768	5097.55
1.88782	5076.6
1.88797	5057.3
1.88812	5035.97
1.88827	5014.27
1.888422	4992.86
1.88857	4970.84
1.88872	4949.14
1.88887	4927.45
1.88902	4905.47
1.88917	4885.71
1.88932	4866.13
1.88947	4849.57
1.889618	4831.96
1.88977	4814.542
1.88992	4796.48
1.890067	4780.999
1.89022	4764.81
1.89037	4750.81
1.89052	4736.12
1.89067	4720.61
1.89082	4706.02
1.89097	4688.56
1.89112	4678.97
1.89127	4695.01
1.89142	4673.917
1.89157	4645.13
1.89171	4616.57
1.891865	4587.459
1.892015	4535.18
1.89216	4511.95
1.89232	4499.77
1.89247	4486.64
1.89262	4476.69
1.89277	4464.6
1.89292	4448.999
1.89307	4437.46
1.89322	4424.69
1.89337	4413.07
1.89352	4393.94
1.89367	4377.896
1.89382	4361.11
1.89397	4344
1.89412	4328.11
1.89427	4311.66
1.89442	4296.37
1.89457	4280.19
1.89472	4266.12
1.89487	4250.66
1.89502	4235.38
1.89517	4220.45
1.89532	4205.5
1.89547	4190.01
1.89562	4174.09
1.89577	4158.09
1.89592	4141.79
1.89607	4123.83
1.89623	4108
1.89638	4089.84
1.89653	4070.43
1.89668	4051.51
1.89683	4030.26
1.89698	4010.13
1.89713	3990.03
1.89728	3969.59
1.89743	3949.97
1.89758	3929.33
1.89773	3910.45
1.89788	3893.27
1.89804	3878.82
1.89819	3864.498
1.89834	3851.792
1.89849	3837.68
1.89864	3821.12
1.898791	3807.62
1.89894	3791.06
1.89909	3776.84
1.89924	3761.26
1.8994	3744.92
1.89955	3730.47
1.8997	3716.38
1.89985	3700.84
1.900001	3684.27
1.90015	3665.97
1.9003	3650.71
1.90046	3635.77
1.90061	3623.94
1.90076	3611.29
1.90091	3600.238
1.90106	3584.87
1.90121	3569.24
1.90136	3554.991
1.90152	3539.98
1.90167	3525.34
1.90182	3510.29
1.90197	3492.09
1.90212	3471.67
1.90227	3452.98
1.90243	3435.01
1.90258	3418.84
1.90273	3403.93
1.90288	3388.26
1.90303	3372.78
1.90319	3359.72
1.903337	3345.825
1.90349	3330.01
1.90364	3313.19
1.90379	3297.62
1.90394	3280.83
1.904097	3261.21
1.904249	3241.88
1.9044	3221.84
1.90455	3200.47
1.90471	3180.48
1.90486	3160.66
1.90501	3141.75
1.90516	3124.6
1.90531	3109.09
1.90547	3095.9
1.90562	3098.59
1.90577	3082.06
1.90592	3066.11
1.90608	3054.79
1.90623	3041.28
1.90638	3027
1.90653	3012.76
1.90669	3001.39
1.90684	2990.83
1.90699	2979.87
1.90714	2964.73
1.9073	2949.32
1.90745	2933.04
1.9076	2919.07
1.90775	2905
1.90791	2891.32
1.90806	2877.21
1.90821	2862.48
1.90836	2847.406
1.90852	2832.19
1.90867	2817.3
1.90882	2803.51
1.90898	2791.97
1.90913	2779.05
1.90928	2767.23
1.909434	2756.04
1.909587	2741.63
1.90974	2728.68
1.909893	2713.28
1.910046	2698.68
1.9102	2682.74
1.91035	2666.65
1.91051	2651.6
1.91066	2636.335
1.91081	2621.05
1.91096	2604.75
1.91112	2586.82
1.91127	2573.63
1.91142	2562.79
1.91158	2552.65
1.91173	2544.05
1.91188	2536.23
1.91204	2528.59
1.91219	2522.05
1.91234	2514.36
1.912498	2505.79
1.91265	2485.03
1.912805	2473.11
1.91296	2463.28
1.913112	2453.11
1.91327	2442.094
1.91342	2429.97
1.91357	2418
1.91373	2403.251
1.91388	2388.61
1.914034	2372.46
1.91419	2356.939
1.91434	2342.92
1.9145	2328.95
1.91465	2315.283
1.9148	2300.94
1.91496	2287.22
1.91511	2274.02
1.91526	2259.68
1.91542	2245.43
1.91557	2235.14
1.91573	2225.04
1.91588	2216.53
1.91603	2209.78
1.91619	2202.31
1.91634	2193.67
1.9165	2183.105
1.916651	2172.33
1.91681	2166.97