File: bartels lab/3642 MoS2 on 1012 WG/Raman_5_21_2015_Dominic/C3_R2/python files used/3642_8401x_3256y/3642 8401x 3250y Raman 1800 T2 D1 100x.txt
650.268	82.1289
649.786	80.8919
649.306	80.20739
648.823	80.056
648.343	80.1783
647.863	80.68013
647.38	81.305
646.9	82.006
646.417	82.67
645.937	83.2098
645.4541	83.5683
644.974	83.8398
644.491	84.0158
644.01	84.0116
643.528	83.7479
643.047	83.4171
642.564	83.1257
642.084	83.24543
641.601	84.2243
641.12	82.8002
640.637	81.4336
640.156	79.3813
639.674	78.2919
639.193	77.6391
638.71	77.7068
638.227	83.7025
637.746	86.0901
637.263	85.73455
636.782	85.9531
636.299	86.0567
635.818	85.8372
635.335	85.35231
634.852	84.817
634.371	84.2382
633.887	83.7127
633.406	83.1774
632.9231	82.9279
632.44	82.4907
631.959	81.9988
631.475	81.5138
630.992	81.1681
630.511	80.9572
630.027	81.0585
629.544	81.2788
629.0625	81.9106
628.579	82.7835
628.096	83.82737
627.614	84.8719
627.131	85.25473
626.647	85.8581
626.163	85.46479
625.682	84.7531
625.198	83.9254
624.7146	83.0793
624.233	81.9761
623.749	81.5336
623.2655	81.2687
622.782	81.09948
622.3	81.2811
621.816	81.3855
621.332	81.3424
620.849	81.2686
620.367	81.284
619.883	81.299
619.3988	81.3893
618.915	81.5365
618.431	81.7286
617.949	81.9838
617.465	82.2902
616.981	82.7693
616.4967	83.2561
616.013	83.8184
615.528	83.9204
615.046	83.9768
614.562	82.7868
614.078	82.9507
613.594	82.78862
613.109	82.5389
612.625	82.3321
612.141	82.049
611.656	81.957
611.174	81.8111
610.69	81.8616
610.205	81.95
609.721	82.0705
609.236	82.2347
608.752	82.3771
608.267	82.5172
607.783	82.6218
607.298	82.668
606.814	82.6824
606.329	82.6085
605.844	82.4936
605.36	82.0933
604.875	81.4632
604.39	80.7865
603.9054	79.9726
603.421	79.34317
602.936	79.2092
602.451	79.2149
601.966	79.7422
601.4812	80.71299
600.996	81.7166
600.511	82.706
600.026	83.6839
599.541	84.3751
599.0564	84.8622
598.571	85.2845
598.0863	85.57222
597.6012	85.6106
597.116	85.6226
596.631	85.1454
596.146	84.5349
595.661	83.8717
595.175	83.1895
594.69	82.4595
594.205	81.7406
593.717	81.0251
593.232	80.2949
592.747	79.8525
592.261	79.4796
591.776	79.1771
591.291	78.8513
590.805	78.7003
590.32	78.6088
589.832	78.5636
589.347	78.5352
588.861	78.5418
588.375	78.6045
587.89	78.69558
587.404	78.9447
586.9165	78.9045
586.431	78.8827
585.945	78.8173
585.459	78.467
584.974	78.0226
584.486	77.8667
584	77.8819
583.5141	78.0503
583.0282	78.5171
582.54	79.03775
582.054	79.5753
581.568	80.1169
581.082	80.6423
580.594	81.1221
580.1084	81.5392
579.622	81.8722
579.136	81.7996
578.648	81.6547
578.162	81.3603
577.676	80.8367
577.188	80.2229
576.701	79.3828
576.215	78.3739
575.727	77.3303
575.2406	76.3008
574.754	76.1513
574.266	76.1445
573.7796	76.2621
573.293	76.4869
572.805	76.8099
572.3183	77.0829
571.832	77.6979
571.343	78.3475
570.857	79.0733
570.368	79.7596
569.882	80.1809
569.395	80.5114
568.906	80.7011
568.42	80.9213
567.931	81.1283
567.444	81.3816
566.958	81.9869
566.469	82.6063
565.982	83.3935
565.493	83.7418
565.006	83.7486
564.517	83.5124
564.031	82.8659
563.542	82.1979
563.055	81.5117
562.568	80.86734
562.079	80.2772
561.592	79.764
561.103	79.2778
560.6156	78.92498
560.126	78.6396
559.639	78.5392
559.15	78.4908
558.661	78.7391
558.174	78.9865
557.685	79.3452
557.197	79.729
556.708	80.11097
556.221	80.5101
555.731	80.9228
555.244	81.2988
554.755	81.7853
554.265	81.6117
553.778	81.4631
553.288	81.2289
552.801	80.9565
552.311	80.6795
551.822	80.3304
551.334	80.1012
550.844	79.9481
550.357	79.7442
549.867	80.0796
549.377	80.5315
548.89	81.0212
548.4	81.57843
547.91	82.1323
547.422	82.7516
546.933	83.3738
546.443	84.00248
545.955	84.63533
545.465	85.2513
544.975	85.8869
544.487	86.17984
543.997	86.6732
543.507	87.0564
543.019	87.32682
542.529	87.67981
542.039	88.0286
541.549	88.3644
541.061	88.6653
540.5705	89.0168
540.08	89.0863
539.59	89.1655
539.102	89.1742
538.612	89.1943
538.121	89.2064
537.631	89.4262
537.141	89.68457
536.652	90.3473
536.1618	90.9491
535.671	91.8852
535.181	92.9022
534.69	94.04129
534.202	95.1786
533.711	96.4362
533.221	97.7057
532.73	99.121
532.24	100.53
531.751	102.094
531.26	103.493
530.77	105.108
530.279	106.615
529.788	108.391
529.297	110.429
528.807	113.2761
528.316	117.512
527.8269	122.6336
527.336	129.041
526.845	138.324
526.354	152.0506
525.863	163.119
525.372	177.675
524.881	197.783
524.3902	226.2126
523.899	266.124
523.408	358.081
522.917	502.386
522.426	611
521.935	829
521.443	1023
520.952	1225
520.461	1215
519.9696	1039
519.478	849.8786
518.987	628.257
518.496	485.714
518.004	371.348
517.513	304.36
517.021	243.268
516.53	203.6451
516.038	179.048
515.547	161.0027
515.055	149.8528
514.564	140.038
514.0722	131.644
513.581	125.049
513.089	119.6795
512.597	114.778
512.106	110.713
511.6138	106.771
511.122	102.101
510.63	98.90316
510.138	96.3839
509.645	94.3409
509.153	92.5788
508.661	91.2787
508.169	90.4077
507.677	89.8559
507.185	89.4849
506.693	89.008
506.201	88.26725
505.707	87.5252
505.215	86.7698
504.723	85.8418
504.231	84.8836
503.738	83.959
503.246	83.09967
502.752	82.2922
502.2598	81.6277
501.768	81.1161
501.275	80.7266
500.783	80.6679
500.289	80.6811
499.796	80.964
499.3038	81.624
498.811	82.2317
498.317	82.7652
497.824	83.2016
497.332	83.0032
496.839	82.6925
496.345	82.1461
495.852	81.5775
495.36	80.9472
494.867	80.3355
494.372	79.7201
493.88	79.1315
493.3869	78.5568
492.892	77.9215
492.399	77.6074
491.907	77.3731
491.412	77.2333
490.919	77.1154
490.426	77.1535
489.931	77.4284
489.438	77.3424
488.945	77.3157
488.45	77.2549
487.957	77.219
487.464	76.9277
486.969	76.73101
486.476	76.597
485.983	76.4887
485.488	76.4882
484.994	76.7062
484.499	76.9749
484.006	77.44239
483.513	77.8271
483.017	78.1952
482.524	78.59465
482.029	78.9795
481.535	79.3332
481.04	79.6342
480.547	79.8306
480.053	80.0226
479.558	79.7128
479.064	79.4559
478.569	79.1004
478.075	78.8078
477.58	78.2825
477.086	78.1338
476.59	78.0206
476.097	77.9382
475.601	77.858
475.107	78.0357
474.611	78.1407
474.118	78.304
473.622	78.5384
473.128	78.6855
472.6322	78.8397
472.138	78.98571
471.6424	79.1156
471.146	79.2658
470.653	79.3772
470.156	79.4065
469.663	79.5191
469.166	79.5951
468.672	79.6499
468.1763	79.8151
467.68	79.9655
467.186	80.1693
466.69	80.3481
466.196	80.55481
465.6994	80.7639
465.203	80.971
464.709	81.2354
464.213	81.5077
463.716	81.7228
463.222	82.0108
462.7254	82.2938
462.231	82.5926
461.735	82.8595
461.238	83.141
460.744	83.4158
460.247	83.63868
459.75	83.8301
459.254	83.9756
458.759	84.1176
458.263	84.1024
457.766	84.0493
457.2713	83.98053
456.775	83.869
456.2778	83.7111
455.783	83.5525
455.286	83.261
454.7894	82.9808
454.293	82.6432
453.7977	82.29689
453.301	81.8987
452.8038	81.4756
452.307	81.00325
451.81	80.5365
451.315	80.1973
450.818	80.3061
450.321	81.0359
449.824	81.3684
449.329	81.5729
448.831	81.7647
448.334	81.8053
447.837	80.9062
447.34	80.8928
446.842	81.0619
446.347	81.3365
445.85	81.59063
445.352	81.8812
444.8551	82.2382
444.3577	82.5544
443.86	82.8621
443.363	83.1792
442.867	83.6514
442.37	84.4144
441.872	85.1971
441.375	85.9002
440.877	86.3417
440.379	86.4066
439.882	85.9495
439.384	85.0596
438.886	84.3256
438.389	83.5825
437.891	82.8594
437.395	82.1047
436.897	81.3626
436.3996	80.5151
435.902	79.6755
435.404	78.93792
434.906	78.7561
434.408	78.6781
433.91	78.6694
433.412	78.6637
432.914	78.7392
432.416	78.8268
431.918	79.113
431.42	79.45343
430.922	79.8078
430.4234	79.7651
429.9252	79.8017
429.427	79.9809
428.929	80.3646
428.43	80.5093
427.932	80.5792
427.434	80.5672
426.935	80.482
426.435	80.554
425.937	80.6062
425.4382	80.7357
424.94	80.6799
424.441	80.47686
423.943	80.1985
423.444	79.8614
422.946	79.5013
422.447	79.1237
421.948	78.7331
421.45	78.3474
420.949	77.8863
420.45	77.492
419.952	77.5828
419.453	77.8218
418.954	78.0434
418.4552	78.3233
417.956	78.657
417.455	79.07946
416.957	79.5852
416.458	80.36348
415.959	81.25441
415.46	82.2247
414.961	83.1498
414.46	84.1361
413.961	84.9359
413.461	85.8287
412.962	86.7066
412.461	87.67717
411.962	88.6189
411.463	89.6512
410.964	90.7019
410.464	91.963
409.963	93.4495
409.464	95.5413
408.964	98.8601
408.465	102.25
407.964	105.398
407.464	108.848
406.965	112.56
406.463	115.073
405.964	118.245
405.464	118.989
404.9646	118.6041
404.463	117.072
403.963	114.551
403.464	111.073
402.962	106.664
402.462	101.05
401.963	96.79406
401.461	92.6872
400.961	89.3545
400.461	86.0825
399.959	82.79493
399.46	80.6249
398.958	79.1972
398.4577	78.5987
397.958	79.5946
397.456	79.5541
396.956	79.4842
396.454	79.7132
395.954	80.0388
395.454	80.3392
394.951	80.585
394.451	80.6803
393.9491	80.7377
393.449	80.2235
392.949	79.7041
392.446	79.3005
391.946	79.1482
391.444	79.212
390.944	79.4637
390.441	79.9077
389.941	80.5974
389.438	81.5181
388.938	82.6944
388.435	84.1304
387.935	85.8074
387.432	87.72628
386.932	89.9753
386.429	91.9703
385.929	92.82457
385.4259	93.9179
384.925	94.8716
384.423	95.5636
383.922	95.9173
383.419	95.91
382.918	95.4833
382.4155	94.6365
381.915	93.4711
381.4118	91.7941
380.909	89.82093
380.408	87.70919
379.905	85.7382
379.404	84.03022
378.901	82.4223
378.398	81.0027
377.897	79.8074
377.394	78.7451
376.893	78.0611
376.39	77.6683
375.886	77.6334
375.385	77.6863
374.882	78.0118
374.379	78.4735
373.877	79.1394
373.374	79.689
372.871	79.8943
372.369	79.965
371.866	79.7991
371.363	79.3744
370.861	78.862
370.3577	78.2647
369.854	77.7042
369.353	77.2998
368.849	76.8678
368.345	76.2539
367.844	75.7014
367.34	75.216
366.837	75.1076
366.333	75.2805
365.831	75.6187
365.327	76.0459
364.824	76.4987
364.32	76.8949
363.818	77.23262
363.314	77.4959
362.81	77.6806
362.306	77.7695
361.804	77.7822
361.3	77.6
360.796	77.19783
360.292	76.7836
359.788	76.3273
359.286	75.8135
358.782	75.3289
358.278	74.91671
357.774	74.44828
357.269	74.3763
356.765	74.56572
356.263	74.7755
355.759	75.0772
355.254	75.423
354.75	75.731
354.246	76.1125
353.741	76.3565
353.237	76.6206
352.734	76.4535
352.23	76.2836
351.7254	75.9929
351.221	75.6001
350.716	75.2063
350.2117	74.774
349.707	74.3677
349.202	74.0689
348.698	74.6642
348.193	75.8777
347.688	76.04438
347.186	76.5676
346.681	76.914
346.176	76.829
345.671	76.4792
345.166	76.00576
344.661	75.3051
344.1564	74.8236
343.651	73.6192
343.146	74.0009
342.641	74.4775
342.136	75.375
341.631	76.7813
341.126	77.1571
340.621	76.6997
340.116	76.3814
339.611	76.0759
339.106	75.7752
338.6	75.42289
338.095	75.1014
337.59	74.8027
337.084	74.534
336.577	74.551
336.072	74.3249
335.566	74.02491
335.061	73.8102
334.555	73.7589
334.05	73.9371
333.544	74.2244
333.039	74.6075
332.5332	75.0618
332.028	75.4561
331.522	75.8672
331.014	76.012
330.509	75.9624
330.003	75.6497
329.497	75.2366
328.991	74.5937
328.486	73.98732
327.98	73.7346
327.474	73.6625
326.966	73.73941
326.46	74.0133
325.9541	74.5193
325.448	75.3053
324.942	76.22702
324.434	77.14653
323.928	77.867
323.422	78.4405
322.916	78.7922
322.41	78.8153
321.902	77.4765
321.395	76.37632
320.889	75.9923
320.383	75.694
319.877	75.4327
319.368	75.23101
318.862	75.0687
318.356	74.9735
317.849	74.93531
317.341	74.98938
316.834	74.9671
316.328	75.3404
315.819	75.7341
315.313	76.1564
314.806	76.62307
314.3	77.0904
313.791	77.5716
313.284	77.9857
312.778	78.4516
312.269	78.7909
311.762	79.2504
311.255	79.4147
310.747	79.39164
310.24	79.3713
309.733	79.3154
309.224	79.2073
308.717	79.0966
308.2103	78.947
307.701	78.7684
307.194	78.5337
306.685	78.449
306.178	78.3465
305.6712	78.2496
305.162	78.1689
304.655	78.0561
304.146	78.1002
303.639	78.07869
303.131	78.1518
302.6221	78.1008
302.115	78.1027
301.6055	78.05838
301.098	77.9729
300.589	77.9004
300.081	77.82518
299.5741	77.6767
299.065	77.511
298.557	77.3464
298.048	77.1379
297.54	76.9256
297.031	76.635
296.523	76.3837
296.013	76.1344
295.506	75.6675
294.996	75.2768
294.488	74.8903
293.979	74.5018
293.471	74.126
292.961	73.7744
292.453	73.4654
291.943	73.1655
291.436	72.9485
290.926	72.7521
290.416	72.8235
289.908	72.9185
289.398	73.0722
288.89	73.2754
288.38	73.656
287.872	74.2611
287.362	74.919
286.851	75.6829
286.343	76.4077
285.833	77.0403
285.325	77.6833
284.815	78.2565
284.304	78.5366
283.796	78.43782
283.286	78.1301
282.777	77.7782
282.267	77.4248
281.7565	77.04818
281.248	76.6409
280.738	76.3466
280.227	75.99752
279.719	75.6474
279.208	75.5849
278.697	75.6132
278.189	75.6427
277.678	75.6863
277.168	75.6958
276.657	75.7212
276.148	75.7187
275.637	75.69487
275.127	75.6623
274.618	75.6041
274.1069	75.55291
273.596	75.452
273.085	75.3061
272.576	75.1806
272.065	74.9928
271.554	74.5543
271.043	74.1415
270.534	73.6044
270.023	73.0949
269.512	72.6084
269.001	72.1199
268.492	71.6412
267.981	71.1638
267.469	70.7145
266.958	70.2591
266.447	69.829
265.938	69.34948
265.426	69.1235
264.915	69.3095
264.403	69.38694
263.892	69.6152
263.381	69.78717
262.871	70.0325
262.36	70.31385
261.848	70.58683
261.337	70.8622
260.825	71.1207
260.313	71.3842
259.802	71.4994
259.292	71.2826
258.78	71.1662
258.269	71.02935
257.757	70.9422
257.245	70.7942
256.733	70.743
256.221	70.6691
255.709	70.6961
255.198	70.782
254.686	71.2818
254.174	71.7108
253.662	72.23674
253.1517	72.8234
252.64	73.4066
252.128	73.9651
251.615	74.4592
251.103	74.8005
250.591	74.0094
250.079	73.4905
249.567	72.5848
249.054	71.6801
248.542	71.0829
248.03	70.5463
247.518	70.1239
247.0052	69.8948
246.493	69.6965
245.98	69.4973
245.468	69.5812
244.955	69.8407
244.443	70.1994
243.93	70.5633
243.418	70.9504
242.905	71.348
242.391	71.69677
241.8779	72.0692
241.365	72.3755
240.853	72.6276
240.34	72.80188
239.827	73.1055
239.314	72.884
238.801	72.5899
238.289	72.2552
237.7757	71.9286
237.2628	71.5424
236.748	71.15361
236.2348	70.7295
235.722	70.38
235.2088	69.97332
234.696	69.6907
234.183	69.7234
233.67	69.5933
233.154	69.73278
232.641	69.9434
232.128	70.1899
231.615	70.4139
231.102	70.6567
230.588	70.8248
230.073	71.1012
229.56	71.27861
229.046	71.3032
228.533	71.3127
228.019	71.0757
227.504	70.8468
226.99	70.6742
226.477	70.4644
225.963	70.2394
225.45	69.9559
224.9341	69.8038
224.42	69.61071
223.907	69.3996
223.393	69.3071
222.877	69.2372
222.364	69.21772
221.85	69.2153
221.334	69.2387
220.82	69.2856
220.306	69.47
219.792	69.4847
219.276	69.5059
218.763	69.4851
218.2486	69.4829
217.7325	69.4338
217.218	69.3982
216.704	69.3169
216.188	69.2452
215.674	69.1334
215.16	68.82869
214.6438	68.646
214.13	68.4233
213.6154	68.2499
213.099	68.013
212.585	67.8314
212.07	67.7171
211.554	67.568
211.0397	67.4654
210.523	67.335
210.0088	67.3618
209.494	67.2969
208.978	67.17556
208.463	67.0696
207.947	66.9427
207.4321	66.80806
206.918	66.6971
206.4008	66.3992
205.886	66.1052
205.369	65.7717
204.855	65.393
204.338	64.7168
203.8231	64.1329
203.306	63.9206
202.791	63.7771
202.277	63.7039
201.7596	63.9969
201.245	64.1972
200.728	64.372
200.213	64.5459
199.696	64.7169
199.1806	64.845
198.663	65.0262
198.148	64.9925
197.631	65.0882
197.114	65.1864
196.5988	65.2874
196.0815	65.3308
195.5663	65.5928
195.049	65.8538
194.534	66.1083
194.016	66.3726
193.501	66.6119
192.983	66.807
192.468	66.9898
191.951	67.05806
191.433	67.1149
190.918	67.01133
190.4	66.1618
189.884	65.4702
189.367	64.7961
188.849	64.1139
188.333	63.4923
187.816	62.9295
187.3	62.5958
186.782	62.4182
186.264	62.2022
185.749	62.1898
185.231	62.4794
184.7128	62.921
184.197	63.5834
183.679	64.2913
183.161	64.89782
182.645	65.1177
182.127	65.0559
181.609	64.201
181.093	64.0215
180.575	63.6054
180.057	63.1908
179.54	62.83551
179.022	62.62886
178.504	62.4736
177.986	62.49081
177.469	62.557
176.951	62.7912
176.433	63.096
175.914	63.4855
175.3979	64.0937
174.879	64.6473
174.361	65.1518
173.842	65.5339
173.326	65.583
172.807	65.1152
172.289	64.6668
171.77	64.1069
171.254	63.6105
170.735	63.3856
170.216	63.1619
169.697	62.8596
169.179	62.5305
168.662	62.5009
168.143	62.6997
167.624	63.0177
167.105	63.4225
166.586	63.9132
166.067	64.49939
165.55	65.1037
165.031	65.6709
164.512	65.832
163.9933	65.7835
163.4742	65.5619
162.955	65.21962
162.4359	64.7986
161.9167	64.3722
161.3996	63.9246
160.88	63.5646
160.361	63.3779
159.842	63.2308
159.3224	63.1222
158.803	62.7087
158.284	62.521
157.764	62.6821
157.245	63.0658
156.725	63.7801
156.206	64.5624
155.686	65.32077
155.169	65.8727
154.649	66.3447
154.13	66.76902
153.61	67.0697
153.09	67.1717
152.57	66.67025
152.051	66.06913
151.531	65.5247
151.011	64.90374
150.491	64.1553
149.971	63.379
149.452	62.6015
148.932	61.8065
148.412	61.2599
147.892	60.93338
147.372	60.80386
146.8517	60.7811
146.332	60.8713
145.812	61.1325
145.289	61.4392
144.769	61.8386
144.249	62.40453
143.729	62.9927
143.209	63.6835
142.688	64.3877
142.168	65.1376
141.648	65.91053
141.127	66.6409
140.607	67.37632
140.086	67.9723
139.566	68.4658
139.046	68.6145
138.523	68.3261
138.002	66.7888