File: bartels lab/3642 MoS2 on 1012 WG/Raman_5_21_2015_Dominic/C3_R2/python files used/3642_8401x_3256y/3642 8401x 3296y Raman 1800 T2 D1 100x.txt
650.268	52.5425
649.786	52.4586
649.306	52.0944
648.823	52.1464
648.343	52.1419
647.863	51.9828
647.38	52.1704
646.9	52.6874
646.417	53.2159
645.937	53.5602
645.4541	53.7455
644.974	54.1319
644.491	54.3006
644.01	54.376
643.528	54.4468
643.047	54.4766
642.564	54.4054
642.084	54.5105
641.601	54.3788
641.12	54.5239
640.637	54.7984
640.156	54.8852
639.674	55.1317
639.193	55.551
638.71	55.9327
638.227	56.5335
637.746	56.8773
637.263	57.02314
636.782	56.9733
636.299	56.4466
635.818	55.7913
635.335	55.3011
634.852	54.4929
634.371	53.6183
633.887	52.2359
633.406	51.747
632.9231	51.4358
632.44	51.9362
631.959	52.0313
631.475	52.4333
630.992	53.4367
630.511	54.1341
630.027	54.9544
629.544	55.5117
629.0625	56.0829
628.579	56.4273
628.096	56.8428
627.614	57.2622
627.131	57.5496
626.647	57.6051
626.163	57.6179
625.682	57.5709
625.198	57.3735
624.7146	57.2748
624.233	57.023
623.749	57.30896
623.2655	57.67136
622.782	58.0023
622.3	58.21064
621.816	58.6021
621.332	58.6825
620.849	58.7811
620.367	58.7126
619.883	58.5666
619.3988	58.1081
618.915	57.8274
618.431	57.5242
617.949	57.0119
617.465	56.2464
616.981	55.5574
616.4967	54.9498
616.013	54.3872
615.528	54.022
615.046	53.6315
614.562	53.583
614.078	53.9968
613.594	54.175
613.109	54.4393
612.625	55.1683
612.141	55.8799
611.656	56.3284
611.174	56.7382
610.69	56.9258
610.205	57.2451
609.721	57.7497
609.236	58.0545
608.752	57.8177
608.267	57.6676
607.783	57.31184
607.298	57.05431
606.814	56.7246
606.329	56.639
605.844	56.7312
605.36	56.5871
604.875	56.6398
604.39	56.4479
603.9054	56.1583
603.421	56.0401
602.936	56.0152
602.451	55.8631
601.966	55.9979
601.4812	56.1058
600.996	56.503
600.511	57.1245
600.026	57.3847
599.541	57.3699
599.0564	57.2161
598.571	57.152
598.0863	57.1509
597.6012	57.1361
597.116	56.855
596.631	56.73365
596.146	56.74408
595.661	56.8005
595.175	56.6305
594.69	56.6527
594.205	56.4737
593.717	56.3702
593.232	56.3391
592.747	56.0689
592.261	55.9017
591.776	55.3073
591.291	54.7132
590.805	54.582
590.32	54.1734
589.832	54.2737
589.347	54.4547
588.861	55.0035
588.375	55.6517
587.89	55.7734
587.404	55.6217
586.9165	55.6331
586.431	55.3032
585.945	54.8467
585.459	53.7737
584.974	52.3676
584.486	51.8654
584	51.4319
583.5141	51.2638
583.0282	51.3473
582.54	51.605
582.054	52.0151
581.568	52.6963
581.082	53.6381
580.594	54.5276
580.1084	55.687
579.622	56.322
579.136	56.9252
578.648	57.3468
578.162	57.1392
577.676	56.4915
577.188	56.4994
576.701	56.2351
576.215	55.9357
575.727	55.30798
575.2406	54.72023
574.754	54.4545
574.266	54.142
573.7796	54.0892
573.293	54.0874
572.805	54.2115
572.3183	54.4429
571.832	54.4619
571.343	54.5368
570.857	54.5788
570.368	54.5627
569.882	54.3787
569.395	54.0938
568.906	53.7148
568.42	53.2633
567.931	52.8777
567.444	52.7659
566.958	52.5033
566.469	52.3601
565.982	52.3242
565.493	52.4356
565.006	52.9178
564.517	53.5239
564.031	54.0825
563.542	54.9462
563.055	55.3355
562.568	55.87479
562.079	56.3619
561.592	56.7583
561.103	56.9597
560.6156	57.1621
560.126	57.1683
559.639	57.0607
559.15	56.7603
558.661	56.2604
558.174	55.8179
557.685	55.6934
557.197	55.3423
556.708	55.2674
556.221	55.358
555.731	55.61816
555.244	56.03714
554.755	56.23457
554.265	56.5547
553.778	57.0479
553.288	57.2189
552.801	57.6324
552.311	57.7849
551.822	58.0634
551.334	58.16061
550.844	58.23703
550.357	57.9524
549.867	57.7787
549.377	57.7938
548.89	58.0135
548.4	58.3496
547.91	58.8061
547.422	59.4529
546.933	60.121
546.443	60.7356
545.955	61.3899
545.465	61.6053
544.975	61.75016
544.487	62.0649
543.997	62.4678
543.507	62.5655
543.019	62.7019
542.529	62.5371
542.039	62.407
541.549	62.3793
541.061	62.5758
540.5705	62.7155
540.08	63.0323
539.59	63.39325
539.102	63.7276
538.612	64.14431
538.121	64.5837
537.631	65.4939
537.141	66.7772
536.652	68.17
536.1618	69.43
535.671	71.1337
535.181	72.7059
534.69	74.84478
534.202	76.5736
533.711	78.65081
533.221	80.4775
532.73	82.3133
532.24	83.9919
531.751	86.427
531.26	88.49
530.77	90.6155
530.279	92.4589
529.788	94.22332
529.297	96.2649
528.807	99.2142
528.316	104.0003
527.8269	110.5041
527.336	117.555
526.845	127.628
526.354	144.341
525.863	164.142
525.372	190.7325
524.881	226.655
524.3902	273.944
523.899	344.47
523.408	430.582
522.917	577.438
522.426	750.743
521.935	1048
521.443	1387
520.952	1617
520.461	1701
519.9696	1453.19
519.478	1111.04
518.987	817.736
518.496	620.636
518.004	462.057
517.513	351.402
517.021	282.784
516.53	236.844
516.038	196.567
515.547	174.782
515.055	158.668
514.564	144.421
514.0722	133.508
513.581	124.643
513.089	116.5419
512.597	108.703
512.106	102.251
511.6138	97.2302
511.122	92.2829
510.63	88.3818
510.138	85.2151
509.645	82.6035
509.153	80.6584
508.661	78.9919
508.169	77.4624
507.677	75.8958
507.185	75.0071
506.693	74.3358
506.201	73.81105
505.707	72.9468
505.215	72.2999
504.723	71.4991
504.231	70.5404
503.738	69.2635
503.246	67.8563
502.752	66.6967
502.2598	65.5725
501.768	64.69162
501.275	63.7471
500.783	63.2398
500.289	63.1073
499.796	63.0449
499.3038	62.8747
498.811	62.8861
498.317	63.2617
497.824	63.7964
497.332	64.1665
496.839	64.3614
496.345	64.245
495.852	63.9902
495.36	63.2339
494.867	62.3776
494.372	61.8593
493.88	61.3926
493.3869	61.0985
492.892	60.9435
492.399	60.7035
491.907	60.6869
491.412	60.7211
490.919	60.9688
490.426	61.20377
489.931	61.7815
489.438	61.8088
488.945	61.7432
488.45	61.5354
487.957	61.28688
487.464	60.0616
486.969	59.3867
486.476	58.8118
485.983	58.1434
485.488	57.79649
484.994	57.5975
484.499	57.5155
484.006	57.4822
483.513	57.6231
483.017	57.7089
482.524	57.903
482.029	57.9317
481.535	57.775
481.04	57.665
480.547	57.3946
480.053	57.082
479.558	56.8456
479.064	56.7841
478.569	56.55
478.075	56.2513
477.58	56.05846
477.086	55.8252
476.59	55.8496
476.097	55.9932
475.601	56.2934
475.107	56.497
474.611	56.8778
474.118	57.3219
473.622	57.8325
473.128	58.4332
472.6322	58.8945
472.138	59.2619
471.6424	59.7521
471.146	60.0645
470.653	60.3225
470.156	60.4591
469.663	60.9196
469.166	61.2499
468.672	60.8192
468.1763	60.5279
467.68	59.9349
467.186	58.9102
466.69	58.1373
466.196	57.2781
465.6994	56.8308
465.203	56.4582
464.709	56.5849
464.213	57.0372
463.716	58.1359
463.222	59.1517
462.7254	59.2916
462.231	59.0185
461.735	57.0012
461.238	56.5894
460.744	56.469
460.247	56.5304
459.75	56.5713
459.254	56.7467
458.759	59.1253
458.263	59.463
457.766	59.7478
457.2713	59.7665
456.775	59.4588
456.2778	59.1081
455.783	59.09708
455.286	59.1206
454.7894	59.3062
454.293	59.2666
453.7977	59.1131
453.301	59.0763
452.8038	59.1124
452.307	59.3555
451.81	59.8444
451.315	61.188
450.818	61.8638
450.321	62.3294
449.824	62.6485
449.329	62.7022
448.831	62.8602
448.334	62.8154
447.837	62.6816
447.34	62.1827
446.842	61.5992
446.347	61.1456
445.85	60.5566
445.352	59.88171
444.8551	59.4497
444.3577	58.73476
443.86	58.1665
443.363	57.8528
442.867	58.0723
442.37	58.38908
441.872	59.0211
441.375	59.6921
440.877	60.2383
440.379	60.8276
439.882	61.3678
439.384	61.7421
438.886	61.8332
438.389	61.7486
437.891	61.6099
437.395	61.5331
436.897	61.6368
436.3996	61.9177
435.902	62.0108
435.404	61.98204
434.906	62.0782
434.408	62.2023
433.91	62.2483
433.412	62.2431
432.914	62.3052
432.416	62.241
431.918	62.2047
431.42	61.9286
430.922	61.6091
430.4234	61.2266
429.9252	60.4272
429.427	60.048
428.929	59.4107
428.43	59.3379
427.932	59.31773
427.434	59.51252
426.935	59.6981
426.435	60.0455
425.937	60.2312
425.4382	60.52544
424.94	60.75341
424.441	60.8892
423.943	60.8602
423.444	60.7201
422.946	60.711
422.447	60.4284
421.948	60.0902
421.45	60.2097
420.949	60.2388
420.45	61.495
419.952	61.3587
419.453	61.3497
418.954	61.3521
418.4552	61.3576
417.956	61.1076
417.455	60.635
416.957	60.2704
416.458	60.086
415.959	60.2975
415.46	60.6867
414.961	61.2328
414.46	61.7543
413.961	62.6955
413.461	64.1296
412.962	65.7219
412.461	67.4272
411.962	69.4808
411.463	71.9511
410.964	74.9813
410.464	78.2072
409.963	81.6585
409.464	85.6133
408.964	90.0064
408.465	93.49424
407.964	96.8186
407.464	99.9119
406.965	103.267
406.463	104.676
405.964	105.073
405.464	104.589
404.9646	102.553
404.463	99.5536
403.963	96.0814
403.464	90.8007
402.962	87.0095
402.462	82.9193
401.963	78.6103
401.461	74.8546
400.961	71.2085
400.461	67.94976
399.959	65.1873
399.46	63.36821
398.958	61.1669
398.4577	60.6495
397.958	59.9379
397.456	59.5628
396.956	59.06649
396.454	59.0551
395.954	59.1733
395.454	59.3745
394.951	59.6652
394.451	60.0126
393.9491	60.4585
393.449	60.8367
392.949	61.127
392.446	61.2228
391.946	61.4381
391.444	61.6308
390.944	62.01981
390.441	62.0552
389.941	62.6125
389.438	63.2407
388.938	64.08
388.435	65.2785
387.935	66.7735
387.432	68.3537
386.932	69.8694
386.429	71.702
385.929	72.9629
385.4259	74.613
384.925	75.7905
384.423	76.7462
383.922	76.9941
383.419	76.9253
382.918	76.3074
382.4155	75.2006
381.915	73.94545
381.4118	72.5272
380.909	71.0051
380.408	69.3848
379.905	68.0084
379.404	66.7791
378.901	65.695
378.398	64.6937
377.897	64.17234
377.394	63.1404
376.893	62.1371
376.39	61.3545
375.886	60.21233
375.385	59.7215
374.882	59.3804
374.379	59.21487
373.877	58.92556
373.374	59.51
372.871	60.0916
372.369	60.342
371.866	60.7587
371.363	60.9013
370.861	60.9577
370.3577	60.7769
369.854	60.3529
369.353	59.9129
368.849	59.5653
368.345	59.2753
367.844	58.5712
367.34	57.7058
366.837	56.9414
366.333	56.1019
365.831	55.6499
365.327	55.35125
364.824	55.2212
364.32	55.2532
363.818	55.8525
363.314	58.5483
362.81	59.50737
362.306	59.9986
361.804	60.2559
361.3	59.941
360.796	58.515
360.292	58.1668
359.788	58.0656
359.286	58.01062
358.782	58.0966
358.278	58.1846
357.774	58.174
357.269	58.1941
356.765	58.3497
356.263	58.3844
355.759	58.6625
355.254	58.7363
354.75	59.4268
354.246	59.584
353.741	59.8012
353.237	59.77721
352.734	59.5929
352.23	59.1432
351.7254	58.8689
351.221	58.458
350.716	58.182
350.2117	58.246
349.707	58.3566
349.202	58.73798
348.698	59.28067
348.193	59.4882
347.688	59.7489
347.186	59.72728
346.681	59.7935
346.176	59.87476
345.671	59.669
345.166	59.2044
344.661	58.9821
344.1564	58.4065
343.651	58.0837
343.146	57.8041
342.641	57.5975
342.136	57.3904
341.631	57.1382
341.126	57.1178
340.621	57.4191
340.116	57.6557
339.611	57.9086
339.106	58.613
338.6	58.993
338.095	59.1338
337.59	59.1613
337.084	59.1449
336.577	58.7782
336.072	58.5186
335.566	58.12265
335.061	58.036
334.555	57.6985
334.05	57.2988
333.544	56.8267
333.039	56.5793
332.5332	56.3971
332.028	56.4102
331.522	56.346
331.014	56.7054
330.509	57.1783
330.003	57.58894
329.497	58.1496
328.991	58.6632
328.486	59.23296
327.98	59.8391
327.474	60.32959
326.966	60.8359
326.46	61.0382
325.9541	61.17841
325.448	61.1877
324.942	61.1188
324.434	60.5448
323.928	59.944
323.422	59.1607
322.916	58.8237
322.41	58.3089
321.902	58.4104
321.395	58.7295
320.889	59.3123
320.383	59.9097
319.877	60.6074
319.368	61.2331
318.862	61.5487
318.356	61.956
317.849	62.293
317.341	62.5275
316.834	62.93911
316.328	62.9081
315.819	62.1662
315.313	62.0549
314.806	61.6302
314.3	61.6516
313.791	62.0666
313.284	62.0793
312.778	62.0416
312.269	62.0569
311.762	62.2205
311.255	62.4641
310.747	62.8773
310.24	63.13195
309.733	63.0087
309.224	63.0696
308.717	63.5095
308.2103	63.99828
307.701	64.4827
307.194	65.15242
306.685	66.0512
306.178	66.5887
305.6712	67.0797
305.162	67.6096
304.655	67.9763
304.146	68.0292
303.639	67.984
303.131	67.35305
302.6221	67.5099
302.115	67.4535
301.6055	67.4363
301.098	67.081
300.589	66.5575
300.081	66.0744
299.5741	65.5422
299.065	65.0938
298.557	64.7749
298.048	64.8928
297.54	64.41951
297.031	63.6024
296.523	62.8327
296.013	62.135
295.506	61.7685
294.996	61.4443
294.488	61.4247
293.979	61.334
293.471	61.38575
292.961	61.5109
292.453	61.4059
291.943	61.1692
291.436	61.0074
290.926	61.0091
290.416	61.1534
289.908	61.2116
289.398	61.5182
288.89	61.6107
288.38	61.9883
287.872	61.7625
287.362	61.0207
286.851	60.5102
286.343	59.83865
285.833	59.47739
285.325	59.4064
284.815	59.6401
284.304	59.2985
283.796	59.0126
283.286	58.1426
282.777	57.6916
282.267	57.41082
281.7565	57.4841
281.248	58.3858
280.738	59.436
280.227	60.9326
279.719	63.0626
279.208	64.0597
278.697	64.4301
278.189	62.59795
277.678	59.1166
277.168	60.224
276.657	59.82478
276.148	59.3435
275.637	58.85
275.127	58.4645
274.618	58.2643
274.1069	57.9628
273.596	57.6975
273.085	57.347
272.576	57.0177
272.065	56.7715
271.554	56.257
271.043	55.8657
270.534	55.3303
270.023	55.0839
269.512	54.9884
269.001	55.0087
268.492	54.8471
267.981	55.1762
267.469	55.42815
266.958	55.6931
266.447	56.13245
265.938	56.6273
265.426	57.03981
264.915	57.4186
264.403	57.5571
263.892	57.4806
263.381	57.4357
262.871	57.0046
262.36	56.5574
261.848	56.159
261.337	55.7949
260.825	55.7738
260.313	55.72366
259.802	55.7063
259.292	55.64439
258.78	55.2795
258.269	55.12331
257.757	55.2514
257.245	55.6742
256.733	55.5114
256.221	55.41917
255.709	55.2449
255.198	55.207
254.686	54.8618
254.174	54.45232
253.662	54.0015
253.1517	53.7259
252.64	53.4516
252.128	53.1081
251.615	53.0612
251.103	53.0568
250.591	53.293
250.079	53.6424
249.567	54.1711
249.054	54.5236
248.542	54.9314
248.03	55.2081
247.518	55.4681
247.0052	55.6144
246.493	55.6862
245.98	55.5909
245.468	55.0586
244.955	54.6861
244.443	54.4284
243.93	54.2095
243.418	53.9057
242.905	53.7016
242.391	53.511
241.8779	53.2549
241.365	53.4581
240.853	53.7064
240.34	54.0399
239.827	54.3616
239.314	54.4901
238.801	54.4862
238.289	54.5874
237.7757	54.5113
237.2628	54.5448
236.748	54.8109
236.2348	55.0663
235.722	55.1702
235.2088	55.2542
234.696	55.4639
234.183	55.632
233.67	55.7668
233.154	55.9053
232.641	55.9612
232.128	55.9516
231.615	55.7309
231.102	55.5112
230.588	55.08033
230.073	54.7671
229.56	54.2897
229.046	54.0607
228.533	53.8294
228.019	53.6912
227.504	53.5201
226.99	53.2725
226.477	53.0423
225.963	52.8659
225.45	52.9297
224.9341	53.1427
224.42	53.3469
223.907	53.4275
223.393	53.7697
222.877	53.9378
222.364	53.844
221.85	53.6418
221.334	53.155
220.82	52.6842
220.306	52.4216
219.792	52.3928
219.276	52.2503
218.763	52.271
218.2486	52.3512
217.7325	52.3827
217.218	52.1726
216.704	52.1071
216.188	51.99609
215.674	51.9067
215.16	51.7828
214.6438	51.5408
214.13	51.1575
213.6154	50.63187
213.099	50.401
212.585	50.0551
212.07	49.7028
211.554	49.6157
211.0397	49.4365
210.523	49.4663
210.0088	49.5664
209.494	49.8806
208.978	50.2106
208.463	50.7451
207.947	51.2028
207.4321	51.6258
206.918	51.8176
206.4008	52.172
205.886	52.2397
205.369	51.8604
204.855	51.1534
204.338	50.6482
203.8231	50.2739
203.306	49.8223
202.791	49.5303
202.277	49.1481
201.7596	48.60844
201.245	48.3377
200.728	48.0146
200.213	48.0135
199.696	47.97612
199.1806	48.2808
198.663	48.5625
198.148	49.2537
197.631	49.6885
197.114	50.001
196.5988	50.15712
196.0815	50.3096
195.5663	49.8879
195.049	48.6188
194.534	47.8453
194.016	47.5993
193.501	47.9035
192.983	50.1112
192.468	50.8421
191.951	51.2602
191.433	51.2664
190.918	50.854
190.4	50.21851
189.884	49.6335
189.367	49.7826
188.849	50.3946
188.333	50.20586
187.816	50.1056
187.3	49.6034
186.782	49.374
186.264	49.13765
185.749	48.9109
185.231	48.70134
184.7128	48.6918
184.197	48.6494
183.679	48.6959
183.161	48.4316
182.645	48.5322
182.127	48.7093
181.609	49.0917
181.093	49.5352
180.575	50.0974
180.057	50.9048
179.54	51.3755
179.022	51.652
178.504	51.65015
177.986	50.4109
177.469	50.62215
176.951	50.7871
176.433	50.8011
175.914	50.8793
175.3979	50.9187
174.879	50.97546
174.361	51.0372
173.842	50.9676
173.326	50.812
172.807	50.60582
172.289	50.3711
171.77	50.1802
171.254	50.1657
170.735	49.9129
170.216	49.3588
169.697	48.7562
169.179	48.0117
168.662	47.448
168.143	46.9876
167.624	46.6715
167.105	46.553
166.586	46.7623
166.067	46.8454
165.55	47.1146
165.031	47.4256
164.512	47.8018
163.9933	48.17654
163.4742	48.5727
162.955	48.87389
162.4359	49.2802
161.9167	49.6736
161.3996	49.9529
160.88	49.8985
160.361	49.8012
159.842	49.58894
159.3224	49.5878
158.803	49.7754
158.284	50.0693
157.764	50.35
157.245	50.1799
156.725	50.0219
156.206	49.7561
155.686	49.3707
155.169	49.07172
154.649	48.8092
154.13	48.5481
153.61	48.2125
153.09	47.6527
152.57	47.24
152.051	47.2569
151.531	47.1382
151.011	47.0593
150.491	46.9373
149.971	46.6783
149.452	46.6735
148.932	46.9316
148.412	47.4314
147.892	47.7694
147.372	48.1807
146.8517	48.2034
146.332	48.214
145.812	48.2102
145.289	48.2193
144.769	48.1405
144.249	48.167
143.729	48.1947
143.209	48.2144
142.688	48.1212
142.168	48.0645
141.648	47.9601
141.127	47.3621
140.607	46.8996
140.086	46.7453
139.566	46.6575
139.046	47.2921
138.523	48.4406
138.002	49.6767