File: bartels lab/3642 MoS2 on 1012 WG/Raman_5_21_2015_Dominic/C3_R2/python files used/3642_8401x_3256y/3642 8432x 3298y Raman 1800 T2 D1 100x.txt
650.268	59.617
649.786	60.4051
649.306	60.48996
648.823	60.5526
648.343	60.5788
647.863	60.59827
647.38	60.5993
646.9	60.581
646.417	60.5918
645.937	60.59433
645.4541	60.6052
644.974	60.6297
644.491	60.6373
644.01	60.672
643.528	60.674
643.047	60.7307
642.564	60.7285
642.084	60.7488
641.601	60.723
641.12	60.7244
640.637	60.6949
640.156	60.6925
639.674	60.6689
639.193	60.6613
638.71	60.6388
638.227	60.6196
637.746	60.6215
637.263	60.6209
636.782	60.6585
636.299	60.6882
635.818	60.7621
635.335	60.831
634.852	60.9408
634.371	61.0475
633.887	61.1908
633.406	61.3152
632.9231	60.4789
632.44	60.841
631.959	61.3854
631.475	62.4357
630.992	62.511
630.511	62.096
630.027	61.6703
629.544	61.1719
629.0625	60.7764
628.579	60.515
628.096	60.4162
627.614	60.7584
627.131	61.0645
626.647	61.2931
626.163	61.314
625.682	61.4701
625.198	61.6544
624.7146	61.8564
624.233	62.1239
623.749	62.4165
623.2655	63.0718
622.782	63.432
622.3	63.5878
621.816	63.6128
621.332	63.5246
620.849	63.3497
620.367	63.1548
619.883	62.9272
619.3988	62.49641
618.915	62.0363
618.431	61.69487
617.949	61.6025
617.465	61.5247
616.981	61.387
616.4967	61.1925
616.013	60.9685
615.528	60.8257
615.046	60.7233
614.562	60.8308
614.078	60.96
613.594	61.10603
613.109	61.29369
612.625	61.8501
612.141	62.3676
611.656	62.7321
611.174	63.0051
610.69	63.2128
610.205	63.33873
609.721	63.3351
609.236	63.2364
608.752	63.0452
608.267	62.6537
607.783	61.9466
607.298	61.2041
606.814	60.2623
606.329	58.603
605.844	58.4757
605.36	58.575
604.875	59.0496
604.39	59.9609
603.9054	60.6551
603.421	61.28191
602.936	61.8263
602.451	62.2274
601.966	62.3488
601.4812	62.2935
600.996	62.5262
600.511	62.6253
600.026	62.5629
599.541	62.3165
599.0564	62.0119
598.571	61.6591
598.0863	61.32534
597.6012	60.9567
597.116	60.6546
596.631	60.4641
596.146	60.4008
595.661	60.48843
595.175	60.7195
594.69	61.3163
594.205	62.0535
593.717	62.7884
593.232	63.3295
592.747	63.8121
592.261	64.111
591.776	64.1848
591.291	64.059
590.805	63.5589
590.32	62.6546
589.832	61.5124
589.347	60.3024
588.861	59.692
588.375	60.13525
587.89	61.0677
587.404	61.6231
586.9165	62.0764
586.431	62.2979
585.945	62.43111
585.459	62.4716
584.974	62.3402
584.486	62.0714
584	61.663
583.5141	61.0632
583.0282	60.27354
582.54	59.2376
582.054	57.7686
581.568	55.9021
581.082	55.1575
580.594	54.06995
580.1084	53.397
579.622	53.2841
579.136	53.569
578.648	54.22823
578.162	55.4604
577.676	56.815
577.188	57.522
576.701	58.05809
576.215	58.4431
575.727	58.6884
575.2406	58.9355
574.754	59.0426
574.266	57.84193
573.7796	57.5526
573.293	57.1688
572.805	56.9308
572.3183	56.7947
571.832	56.7848
571.343	57.4148
570.857	58.1219
570.368	58.8227
569.882	59.5732
569.395	60.1172
568.906	60.6203
568.42	61.0767
567.931	61.1414
567.444	61.0841
566.958	60.9577
566.469	60.7975
565.982	60.5971
565.493	60.3681
565.006	60.1214
564.517	59.8554
564.031	59.5884
563.542	59.3304
563.055	59.0752
562.568	59.0092
562.079	58.9809
561.592	58.87991
561.103	58.7816
560.6156	58.7072
560.126	58.6685
559.639	58.6157
559.15	58.5935
558.661	58.5824
558.174	58.6047
557.685	58.6005
557.197	58.5501
556.708	58.7671
556.221	58.9937
555.731	59.2711
555.244	59.5896
554.755	59.9517
554.265	60.3231
553.778	60.763
553.288	61.2985
552.801	61.84
552.311	62.2499
551.822	62.6341
551.334	62.9128
550.844	62.9564
550.357	62.9674
549.867	63.0737
549.377	63.0988
548.89	63.135
548.4	63.2217
547.91	63.3467
547.422	63.4897
546.933	63.825
546.443	64.1373
545.955	64.816
545.465	65.4948
544.975	66.0555
544.487	66.6775
543.997	67.2295
543.507	67.7229
543.019	68.1917
542.529	68.3595
542.039	68.5153
541.549	68.5241
541.061	68.42086
540.5705	68.2412
540.08	68.0076
539.59	67.7933
539.102	67.895
538.612	68.5209
538.121	69.3071
537.631	70.1755
537.141	70.8447
536.652	71.7685
536.1618	72.6683
535.671	73.4579
535.181	73.9265
534.69	74.4093
534.202	74.9246
533.711	75.6153
533.221	76.6535
532.73	78.3319
532.24	80.6206
531.751	82.2008
531.26	84.3062
530.77	86.6
530.279	89.4695
529.788	92.6874
529.297	97.4441
528.807	102.332
528.316	108.323
527.8269	115.562
527.336	124.215
526.845	134.512
526.354	148.452
525.863	162.0289
525.372	180.273
524.881	209.345
524.3902	244.517
523.899	323.289
523.408	401.8873
522.917	548.41
522.426	731.448
521.935	963.936
521.443	1222.36
520.952	1405
520.461	1348
519.9696	1125
519.478	833
518.987	642
518.496	465.278
518.004	373.032
517.513	286.3107
517.021	215.344
516.53	181.301
516.038	171.542
515.547	160.545
515.055	144.672
514.564	130.255
514.0722	119.886
513.581	110.74
513.089	105.166
512.597	99.682
512.106	95.3065
511.6138	91.55
511.122	88.4445
510.63	85.9514
510.138	83.7367
509.645	79.8253
509.153	77.6828
508.661	75.8637
508.169	74.3829
507.677	73.0303
507.185	71.9281
506.693	70.4267
506.201	69.9325
505.707	69.5244
505.215	69.202
504.723	68.9324
504.231	68.7332
503.738	68.5206
503.246	68.35
502.752	68.1723
502.2598	67.9905
501.768	67.7834
501.275	67.58429
500.783	67.3453
500.289	66.9378
499.796	66.6667
499.3038	66.3312
498.811	66.1345
498.317	65.7636
497.824	65.4124
497.332	65.0535
496.839	64.709
496.345	64.3568
495.852	64.0147
495.36	63.6859
494.867	63.3636
494.372	63.054
493.88	62.7869
493.3869	62.5314
492.892	62.3033
492.399	62.1073
491.907	61.9217
491.412	61.7735
490.919	61.63308
490.426	61.5356
489.931	61.4424
489.438	61.4942
488.945	61.577
488.45	61.6842
487.957	61.739
487.464	61.7903
486.969	61.8105
486.476	61.9463
485.983	62.13113
485.488	62.3037
484.994	62.4988
484.499	62.7076
484.006	62.8724
483.513	63.0572
483.017	63.2471
482.524	63.3128
482.029	63.3576
481.535	63.1225
481.04	62.4003
480.547	61.924
480.053	61.3706
479.558	60.8223
479.064	60.3078
478.569	59.8121
478.075	59.3244
477.58	58.8855
477.086	58.59063
476.59	58.3846
476.097	58.3401
475.601	58.3696
475.107	58.3886
474.611	58.7042
474.118	59.1147
473.622	59.56115
473.128	60.0191
472.6322	60.5258
472.138	61.0523
471.6424	61.5521
471.146	62.0609
470.653	62.5965
470.156	62.7938
469.663	63.1784
469.166	63.2012
468.672	63.1794
468.1763	63.0844
467.68	62.9421
467.186	62.7301
466.69	62.6038
466.196	62.4599
465.6994	62.3409
465.203	62.0278
464.709	62.1778
464.213	62.456
463.716	62.80389
463.222	63.1419
462.7254	63.4565
462.231	63.8409
461.735	64.1741
461.238	64.5231
460.744	64.8466
460.247	65.1745
459.75	65.4732
459.254	65.7563
458.759	66.01696
458.263	66.109
457.766	66.2261
457.2713	66.3433
456.775	66.3479
456.2778	66.368
455.783	66.3686
455.286	66.3209
454.7894	66.37899
454.293	66.22506
453.7977	66.06839
453.301	65.8787
452.8038	65.65683
452.307	65.444
451.81	65.1984
451.315	64.97773
450.818	64.6736
450.321	64.4041
449.824	64.26
449.329	64.13752
448.831	64.0359
448.334	63.9344
447.837	64.2467
447.34	64.4009
446.842	64.5652
446.347	64.7337
445.85	64.9025
445.352	65.0569
444.8551	65.1396
444.3577	65.2237
443.86	65.2806
443.363	64.93029
442.867	64.8534
442.37	64.7098
441.872	64.6159
441.375	64.5303
440.877	64.27137
440.379	64.4065
439.882	64.61
439.384	64.8158
438.886	65.0718
438.389	65.6843
437.891	66.1356
437.395	66.44294
436.897	66.5933
436.3996	66.6325
435.902	66.3095
435.404	65.9058
434.906	65.4965
434.408	65.0595
433.91	64.6135
433.412	64.1701
432.914	63.72665
432.416	63.2955
431.918	62.8716
431.42	62.534
430.922	62.36937
430.4234	62.2092
429.9252	61.9099
429.427	62.0759
428.929	62.3131
428.43	62.6252
427.932	62.9344
427.434	63.3112
426.935	63.7293
426.435	64.103
425.937	64.5288
425.4382	64.9099
424.94	65.3182
424.441	65.6808
423.943	65.7239
423.444	65.7201
422.946	65.727
422.447	65.702
421.948	65.6815
421.45	65.6386
420.949	65.5847
420.45	65.5137
419.952	65.43866
419.453	65.3887
418.954	65.3458
418.4552	65.3694
417.956	65.40979
417.455	65.9519
416.957	66.4016
416.458	67.0021
415.959	67.8931
415.46	68.9902
414.961	70.0387
414.46	70.4659
413.961	70.68174
413.461	71.0416
412.962	71.2879
412.461	71.7237
411.962	72.3527
411.463	73.3433
410.964	74.4965
410.464	75.964
409.963	77.6795
409.464	79.5611
408.964	81.2484
408.465	82.9061
407.964	85.3702
407.464	88.9791
406.965	92.7403
406.463	96.5473
405.964	103.308
405.464	104.289
404.9646	104.67
404.463	102.929
403.963	100.169
403.464	92.9
402.962	87.6933
402.462	83.12545
401.963	78.3542
401.461	75.21151
400.961	72.2978
400.461	69.7507
399.959	67.5414
399.46	65.7411
398.958	64.2165
398.4577	62.9425
397.958	62.6407
397.456	62.7582
396.956	62.8356
396.454	62.9488
395.954	63.12151
395.454	63.3256
394.951	63.47995
394.451	63.6647
393.9491	63.7359
393.449	63.8586
392.949	63.9384
392.446	64.0445
391.946	64.1207
391.444	64.1964
390.944	63.9582
390.441	64.1207
389.941	64.5052
389.438	65.171
388.938	65.7597
388.435	67.3705
387.935	68.9909
387.432	70.897
386.932	73.24955
386.429	76.1719
385.929	79.4043
385.4259	83.1989
384.925	84.382
384.423	84.5659
383.922	83.9273
383.419	82.489
382.918	80.3536
382.4155	75.761
381.915	73.8457
381.4118	72.6072
380.909	71.18734
380.408	69.8358
379.905	68.53331
379.404	67.2982
378.901	66.1434
378.398	65.2393
377.897	64.4137
377.394	63.6352
376.893	62.4665
376.39	61.6542
375.886	61.6164
375.385	61.8149
374.882	62.1802
374.379	62.4801
373.877	62.8121
373.374	63.1642
372.871	63.5574
372.369	64.2988
371.866	64.99453
371.363	64.7611
370.861	64.69976
370.3577	64.3445
369.854	63.9653
369.353	63.5848
368.849	63.1815
368.345	62.7897
367.844	62.4171
367.34	62.05484
366.837	61.7225
366.333	61.3916
365.831	61.0921
365.327	60.7981
364.824	60.5593
364.32	60.3354
363.818	60.141
363.314	59.9762
362.81	59.8195
362.306	59.7341
361.804	59.6377
361.3	59.5969
360.796	59.5836
360.292	59.6439
359.788	59.6771
359.286	59.8605
358.782	60.0032
358.278	60.2496
357.774	60.4657
357.269	60.7213
356.765	60.9651
356.263	61.233
355.759	61.4995
355.254	61.7582
354.75	62.024
354.246	62.247
353.741	62.4757
353.237	62.641
352.734	62.3477
352.23	62.161
351.7254	61.9536
351.221	61.70232
350.716	61.3897
350.2117	61.0392
349.707	60.6663
349.202	60.22963
348.698	59.7066
348.193	59.1407
347.688	58.5137
347.186	58.8517
346.681	59.3732
346.176	59.9503
345.671	60.5591
345.166	61.0726
344.661	61.468
344.1564	61.6834
343.651	61.8483
343.146	61.8582
342.641	61.8003
342.136	61.6311
341.631	61.3788
341.126	61.0221
340.621	60.58
340.116	60.0075
339.611	59.3114
339.106	58.4843
338.6	57.6409
338.095	57.451
337.59	57.6368
337.084	57.936
336.577	58.4291
336.072	59.0308
335.566	59.6815
335.061	60.3571
334.555	61.0597
334.05	61.71376
333.544	62.32465
333.039	62.8362
332.5332	63.19125
332.028	63.3305
331.522	63.3335
331.014	63.0575
330.509	62.4056
330.003	61.6217
329.497	61.0461
328.991	60.71035
328.486	60.4796
327.98	60.2399
327.474	60.0015
326.966	59.7437
326.46	59.54903
325.9541	59.4834
325.448	59.4143
324.942	59.4485
324.434	59.643
323.928	60.764
323.422	61.1547
322.916	61.3403
322.41	61.4583
321.902	61.5904
321.395	61.7573
320.889	61.9119
320.383	62.1025
319.877	62.2789
319.368	62.4794
318.862	62.6698
318.356	62.8494
317.849	63.0467
317.341	63.1974
316.834	63.4126
316.328	63.4911
315.819	63.7178
315.313	63.9898
314.806	64.236
314.3	64.5326
313.791	64.8168
313.284	65.1029
312.778	65.3766
312.269	65.6505
311.762	65.9895
311.255	66.1466
310.747	66.30352
310.24	66.4263
309.733	66.5203
309.224	66.5841
308.717	66.6389
308.2103	66.6285
307.701	66.2715
307.194	66.1771
306.685	66.0536
306.178	65.9281
305.6712	65.8413
305.162	65.735
304.655	65.6868
304.146	65.7284
303.639	65.6581
303.131	65.6614
302.6221	65.6325
302.115	65.5651
301.6055	65.4893
301.098	65.3914
300.589	65.2927
300.081	65.17
299.5741	65.0447
299.065	64.8922
298.557	64.7305
298.048	64.5334
297.54	64.27639
297.031	64.07029
296.523	63.8595
296.013	63.7372
295.506	63.5688
294.996	63.3844
294.488	63.1524
293.979	62.9258
293.471	62.7137
292.961	62.4208
292.453	62.0725
291.943	62.0415
291.436	62.01075
290.926	62.0351
290.416	62.111
289.908	62.4363
289.398	62.5813
288.89	62.7212
288.38	62.831
287.872	62.9454
287.362	63.02
286.851	63.0838
286.343	63.0373
285.833	63.06274
285.325	62.9479
284.815	62.8413
284.304	62.6698
283.796	62.4941
283.286	62.2993
282.777	62.0895
282.267	61.8655
281.7565	61.6243
281.248	61.3644
280.738	61.0804
280.227	60.8418
279.719	60.4739
279.208	60.2583
278.697	60.0973
278.189	59.9115
277.678	59.8102
277.168	59.9142
276.657	59.8363
276.148	59.7483
275.637	59.675
275.127	59.5537
274.618	59.3789
274.1069	59.1862
273.596	58.8065
273.085	58.1553
272.576	57.5954
272.065	56.997
271.554	56.5139
271.043	56.0255
270.534	55.6621
270.023	55.3669
269.512	55.5036
269.001	55.7914
268.492	56.2937
267.981	56.8941
267.469	57.5283
266.958	58.1901
266.447	58.621
265.938	59.0261
265.426	58.8267
264.915	58.7685
264.403	58.7538
263.892	58.8123
263.381	58.7995
262.871	58.7023
262.36	58.505
261.848	58.10659
261.337	57.5445
260.825	57.0273
260.313	56.5953
259.802	56.36
259.292	56.2895
258.78	56.3996
258.269	56.5179
257.757	56.3812
257.245	55.9525
256.733	55.6122
256.221	55.6202
255.709	55.6523
255.198	55.7413
254.686	55.84
254.174	55.9792
253.662	56.1246
253.1517	56.2635
252.64	56.4161
252.128	56.5201
251.615	56.6477
251.103	56.72966
250.591	56.8424
250.079	56.9396
249.567	57.0383
249.054	57.18021
248.542	57.1823
248.03	57.11755
247.518	57.085
247.0052	56.9849
246.493	56.87265
245.98	56.7892
245.468	56.6532
244.955	56.5195
244.443	56.4509
243.93	56.3221
243.418	56.3014
242.905	56.1647
242.391	56.248
241.8779	56.3498
241.365	56.4532
240.853	56.9404
240.34	57.2455
239.827	57.5061
239.314	57.779
238.801	58.0579
238.289	58.1693
237.7757	58.3621
237.2628	58.3414
236.748	58.0704
236.2348	57.7838
235.722	57.5687
235.2088	57.2624
234.696	57.0112
234.183	56.78669
233.67	56.60434
233.154	56.4155
232.641	56.4695
232.128	56.7493
231.615	57.0951
231.102	57.42725
230.588	57.71133
230.073	58.0101
229.56	58.3202
229.046	58.5049
228.533	58.5146
228.019	58.29541
227.504	58.0504
226.99	57.76247
226.477	57.438
225.963	57.08849
225.45	56.7578
224.9341	56.4135
224.42	56.0892
223.907	55.73901
223.393	55.4328
222.877	55.0962
222.364	54.8132
221.85	54.647
221.334	54.4675
220.82	54.3198
220.306	54.1137
219.792	54.0206
219.276	53.9454
218.763	53.8763
218.2486	53.8241
217.7325	53.786
217.218	53.7631
216.704	53.7371
216.188	53.7226
215.674	53.7172
215.16	53.6916
214.6438	53.6894
214.13	53.7102
213.6154	53.7244
213.099	53.5069
212.585	53.2739
212.07	52.76939
211.554	52.3005
211.0397	51.9557
210.523	51.5871
210.0088	51.2815
209.494	50.9483
208.978	50.71645
208.463	50.5019
207.947	50.3449
207.4321	50.308
206.918	50.8163
206.4008	51.1283
205.886	51.677
205.369	52.3033
204.855	52.9617
204.338	53.6071
203.8231	54.2203
203.306	54.8378
202.791	55.3435
202.277	55.838
201.7596	55.5676
201.245	55.4362
200.728	55.1431
200.213	54.69062
199.696	54.1751
199.1806	53.6293
198.663	53.0976
198.148	52.5801
197.631	52.7892
197.114	52.895
196.5988	53.5094
196.0815	53.2183
195.5663	52.76535
195.049	52.3135
194.534	51.91655
194.016	51.4598
193.501	51.0755
192.983	50.7427
192.468	50.50869
191.951	50.4122
191.433	50.57
190.918	50.9668
190.4	51.5871
189.884	52.0317
189.367	52.2162
188.849	52.178
188.333	52.151
187.816	52.1496
187.3	52.56641
186.782	52.9874
186.264	53.3951
185.749	53.5501
185.231	53.4607
184.7128	53.0884
184.197	52.8469
183.679	52.61298
183.161	52.3891
182.645	52.167
182.127	51.9612
181.609	51.7564
181.093	51.5716
180.575	51.3671
180.057	51.1783
179.54	51.0316
179.022	50.9025
178.504	50.7974
177.986	50.7438
177.469	50.6842
176.951	50.6665
176.433	50.6469
175.914	50.6238
175.3979	50.6173
174.879	50.621
174.361	50.6865
173.842	50.7404
173.326	50.8181
172.807	50.9247
172.289	51.05249
171.77	51.2143
171.254	51.3737
170.735	51.6234
170.216	51.8514
169.697	52.1066
169.179	52.34861
168.662	52.5809
168.143	52.806
167.624	52.98806
167.105	53.1676
166.586	53.2994
166.067	53.4015
165.55	53.3638
165.031	52.87215
164.512	52.4051
163.9933	51.8154
163.4742	51.2188
162.955	50.6433
162.4359	50.0361
161.9167	49.47715
161.3996	48.9956
160.88	48.5305
160.361	48.45187
159.842	48.4583
159.3224	48.5603
158.803	48.6786
158.284	48.8333
157.764	49.0133
157.245	49.2241
156.725	49.44191
156.206	49.6845
155.686	49.9421
155.169	50.2225
154.649	50.4441
154.13	50.7617
153.61	50.9434
153.09	51.0527
152.57	50.9114
152.051	50.7945
151.531	50.6295
151.011	50.4511
150.491	50.31863
149.971	50.1319
149.452	49.9971
148.932	49.8745
148.412	49.7809
147.892	49.7054
147.372	49.799
146.8517	50.2969
146.332	50.8337
145.812	51.3666
145.289	51.9795
144.769	52.62273
144.249	53.2591
143.729	53.856
143.209	54.3911
142.688	54.9153
142.168	54.8563
141.648	54.9314
141.127	54.8363
140.607	54.7369
140.086	54.361
139.566	53.7085
139.046	52.68911
138.523	50.5826
138.002	48.32629