File: bartels lab/3642 MoS2 on 1012 WG/Raman_5_21_2015_Dominic/C3_R2/python files used/3642_8401x_3256y/3642 8401x 3296y PL 600 T2 D1 100x.txt
1.7708	2157.28
1.77093	2169.12
1.77106	2179.73
1.77119	2189.07
1.77132	2195.69
1.771448	2200.67
1.77158	2204.26
1.77171	2206.11
1.771839	2207.56
1.77197	2208.429
1.7721	2211.22
1.77223	2214.41
1.77236	2217.604
1.77249	2220.93
1.77262	2224.29
1.77275	2227.77
1.77288	2231.35
1.77301	2235.03
1.77314	2238.75
1.77327	2242.58
1.77341	2246.56
1.77354	2250.58
1.77367	2254.96
1.773797	2259.219
1.77393	2263.56
1.77406	2267.91
1.77419	2273.76
1.77432	2278.39
1.77445	2282.95
1.77458	2287.72
1.77471	2292.6
1.77484	2297.07
1.77497	2301.333
1.775105	2305.65
1.77524	2310.86
1.77537	2316.35
1.7755	2320.97
1.77563	2323.89
1.77576	2326.24
1.77589	2328.27
1.77602	2330.02
1.77615	2332.363
1.77628	2335.26
1.776415	2337.43
1.77655	2337.65
1.77668	2336.59
1.77681	2334.83
1.77694	2332.72
1.77707	2329.375
1.777202	2326.08
1.77733	2324.08
1.77746	2324.08
1.777596	2324.66
1.77773	2326.38
1.77786	2328.77
1.77799	2331.44
1.77812	2334.26
1.77825	2337.19
1.77838	2340.05
1.77852	2342.771
1.77865	2345.26
1.77878	2347.574
1.77891	2349.5
1.77904	2350.68
1.77917	2351.01
1.7793	2352.11
1.77944	2355.56
1.77957	2360.21
1.7797	2366.24
1.77983	2372.65
1.77996	2378.78
1.78009	2384.46
1.780226	2389.41
1.78036	2395.18
1.78049	2400.82
1.78062	2406.13
1.780753	2410.96
1.78088	2415.26
1.78102	2418.48
1.78115	2421.25
1.78128	2423.27
1.78141	2424.19
1.78154	2424.62
1.78168	2424.38
1.78181	2423.72
1.78194	2423.437
1.78207	2425.33
1.782204	2432.23
1.78234	2435.4
1.78247	2435
1.7826	2431.37
1.78273	2428.18
1.78286	2429.29
1.783	2432.9
1.78313	2437.062
1.78326	2440.54
1.78339	2442.38
1.78353	2442.64
1.78366	2440.68
1.78379	2442.88
1.78392	2446.408
1.78405	2450.844
1.784187	2456.22
1.78432	2461.96
1.78445	2468.73
1.784584	2475.4
1.78472	2481.72
1.784849	2486.87
1.78498	2490.2
1.78511	2492.54
1.78525	2495.02
1.78538	2496.69
1.78551	2498.707
1.78564	2497.061
1.78578	2499.18
1.78591	2501.89
1.78604	2504.94
1.78617	2508.37
1.78631	2511.345
1.78644	2514.708
1.78657	2517.938
1.78671	2521.77
1.78684	2526.4
1.786971	2532.69
1.7871	2539.92
1.78724	2546.37
1.78737	2551.51
1.7875	2555.62
1.78764	2558.74
1.78777	2561.63
1.7879	2563.177
1.78803	2564.21
1.78817	2564.66
1.7883	2564.52
1.788433	2564.08
1.788566	2564.02
1.788699	2563.3
1.78883	2563.13
1.78897	2563.79
1.7891	2565.28
1.78923	2568.58
1.78936	2573.72
1.789498	2579.78
1.78963	2586.57
1.78976	2593.92
1.7899	2602.07
1.790031	2610.8
1.79016	2618.95
1.7903	2626.74
1.79043	2633.18
1.79056	2637.35
1.7907	2640.79
1.79083	2645.06
1.79096	2650.95
1.7911	2657.08
1.79123	2663.82
1.79136	2668.61
1.7915	2673.15
1.79163	2678.26
1.79177	2684.25
1.791899	2691.6
1.79203	2700.08
1.79217	2710.689
1.7923	2721.38
1.79243	2731.782
1.79257	2741.89
1.792701	2749.27
1.79283	2755.3
1.79297	2760.304
1.793102	2764.13
1.79324	2767.59
1.79337	2771.28
1.7935	2776.12
1.79364	2777.86
1.79377	2779.97
1.79391	2783.41
1.79404	2787.54
1.794173	2792.56
1.794307	2799.77
1.794441	2807.498
1.79458	2815.47
1.794709	2822.46
1.794843	2828.53
1.79498	2834.54
1.79511	2840.81
1.79525	2847.05
1.79538	2853.54
1.79551	2860.01
1.79565	2866.8
1.79578	2873.93
1.79592	2881.39
1.79605	2888.99
1.79618	2896.572
1.796319	2904.18
1.79645	2911.54
1.79659	2918.54
1.79672	2924.38
1.79686	2929.55
1.79699	2933.96
1.79713	2937.75
1.79726	2940.61
1.797394	2942.35
1.79753	2943.67
1.79766	2944.6
1.7978	2945.53
1.79793	2946.95
1.79807	2948.87
1.7982	2950.97
1.79834	2953.6
1.79847	2956.64
1.79861	2959.93
1.79874	2964.199
1.79887	2970.15
1.79901	2977.11
1.79914	2984.5
1.79928	2991.822
1.79941	2998.73
1.79955	3004.21
1.79968	3009.84
1.799818	3014.853
1.79995	3019.73
1.80009	3024.45
1.80022	3028.89
1.80036	3033.69
1.80049	3038.85
1.80063	3043.91
1.80076	3049.06
1.8009	3054.22
1.80103	3059.36
1.80117	3064.12
1.8013	3068.59
1.80144	3072.52
1.80157	3076.08
1.80171	3078.95
1.80184	3081.78
1.80198	3083.77
1.80211	3085.54
1.802249	3087.18
1.80238	3088.92
1.80252	3091.06
1.80265	3094.15
1.80279	3097.63
1.80293	3102.96
1.80306	3110.36
1.8032	3117.7
1.80333	3124.9
1.80347	3131.189
1.8036	3135.65
1.803738	3138.61
1.80387	3141.01
1.80401	3142.18
1.80414	3143.04
1.80428	3143.16
1.80442	3144.01
1.80455	3143.88
1.804687	3143.14
1.80482	3141.105
1.80496	3132.06
1.805094	3132.52
1.80523	3136.13
1.80537	3143.45
1.8055	3151.26
1.80564	3160.2
1.80577	3169.35
1.80591	3177.39
1.80604	3184.34
1.80618	3189.86
1.80632	3192.62
1.80645	3189.1
1.80659	3188.1
1.80672	3187.33
1.80686	3187.146
1.807	3187.26
1.80713	3187.94
1.80727	3188.73
1.8074	3190.23
1.80754	3191.87
1.80768	3193.97
1.80781	3196.72
1.80795	3200.45
1.808085	3204.7
1.80822	3209.13
1.80836	3213.6
1.80849	3218.32
1.80863	3222.66
1.80877	3227.27
1.8089	3232.04
1.80904	3235.84
1.80918	3241.21
1.80931	3247.64
1.809448	3254.59
1.80958	3262.13
1.80972	3270.88
1.80986	3279.92
1.80999	3288.76
1.81013	3297.31
1.81027	3304.83
1.8104	3311.64
1.81054	3317.47
1.81068	3322.11
1.81081	3326.57
1.81095	3330.73
1.81109	3334.54
1.81122	3336.86
1.81136	3338.374
1.8115	3347.24
1.81163	3356.45
1.81177	3353.26
1.81191	3155.56
1.81204	3391.08
1.81218	3390.48
1.81232	3373.08
1.81245	3373.834
1.81259	3373.19
1.81273	3375.624
1.81287	3380.58
1.813	3391.02
1.81314	3401.925
1.81328	3413.27
1.81341	3423.97
1.81355	3435.45
1.81369	3445.53
1.81382	3454.85
1.81396	3464.09
1.8141	3473.08
1.814236	3482.24
1.81437	3492.51
1.81451	3503.42
1.81465	3515.24
1.814785	3527.02
1.81492	3538.6
1.81506	3550.166
1.815197	3561.45
1.81533	3572.49
1.81547	3583.43
1.815609	3594.26
1.81575	3605.1
1.81588	3615.81
1.81602	3626.44
1.81616	3637.64
1.8163	3648.88
1.816434	3659.76
1.81657	3670.58
1.81671	3679.48
1.81685	3686.75
1.81698	3694.79
1.81712	3705.4
1.81726	3718.02
1.8174	3729.55
1.81753	3739.77
1.81767	3747.87
1.81781	3755.35
1.81795	3761.8
1.818086	3767.72
1.818224	3773.24
1.81836	3778.18
1.8185	3783.21
1.81864	3788.604
1.81878	3794.86
1.81891	3800.98
1.81905	3807.76
1.81919	3815.66
1.81933	3825.3
1.81947	3836.363
1.8196	3849.18
1.81974	3864.74
1.81988	3881.69
1.82002	3898.85
1.82016	3916.15
1.82029	3931.42
1.82043	3943.84
1.82057	3953.73
1.82071	3961.38
1.82085	3968.33
1.82099	3973.26
1.82112	3977.59
1.82126	3982.78
1.8214	3989.56
1.82154	3996.613
1.82168	4004.42
1.82182	4012.59
1.82195	4022.01
1.82209	4031.9
1.82223	4041.86
1.822369	4051.43
1.82251	4060.46
1.82265	4068.4
1.82278	4075.3
1.82292	4080.36
1.82306	4083.186
1.8232	4085.28
1.82334	4086.62
1.82348	4088.196
1.82362	4090.78
1.82376	4095.08
1.823894	4099.57
1.82403	4105.97
1.82417	4113.28
1.82431	4123.33
1.82445	4134.44
1.82459	4145.33
1.82473	4154.01
1.82487	4161.18
1.825	4168.479
1.82514	4175.875
1.82528	4182.46
1.82542	4187.97
1.82556	4191.65
1.8257	4191.64
1.82584	4187.26
1.825978	4181.99
1.826117	4179.28
1.82626	4177.49
1.8264	4176.84
1.82653	4177.34
1.82667	4179.53
1.82681	4182.72
1.82695	4187.72
1.82709	4193.36
1.82723	4200.78
1.82737	4208.26
1.82751	4215.37
1.82765	4220.8
1.82779	4226.16
1.82793	4231.48
1.82807	4235.83
1.82821	4239.28
1.82835	4242.47
1.82849	4245.34
1.828625	4248.61
1.82876	4253.8
1.8289	4261.1
1.82904	4267.66
1.82918	4273.86
1.82932	4277.147
1.82946	4279.522
1.8296	4281.56
1.82974	4283.98
1.82988	4287.4
1.83002	4292.84
1.830161	4298.57
1.8303	4304.17
1.83044	4309.7
1.83058	4315.356
1.83072	4320.65
1.83086	4326.09
1.831	4332.896
1.83114	4341.26
1.83128	4350.41
1.83142	4360.55
1.83156	4373.39
1.8317	4386.29
1.83184	4398.99
1.83198	4411.29
1.83212	4420.55
1.83226	4428.72
1.8324	4436.02
1.83254	4442.64
1.83268	4449.248
1.83282	4455.35
1.83296	4461.99
1.8331	4468.47
1.83324	4473.72
1.83338	4480.24
1.83352	4495.64
1.83366	4508.16
1.8338	4520.437
1.83394	4532.35
1.83408	4544.28
1.83422	4555.93
1.83436	4567.36
1.83451	4580.36
1.83465	4593.27
1.83479	4604.72
1.83493	4612.08
1.83507	4617.686
1.83521	4621.71
1.83535	4622.11
1.83549	4628.66
1.83563	4638.23
1.83577	4651.72
1.83591	4668.03
1.83605	4685.74
1.83619	4712.43
1.83633	4729.67
1.83647	4734.18
1.83662	4737.86
1.836756	4740.146
1.8369	4742.69
1.83704	4745.92
1.83718	4748.71
1.83732	4753.99
1.83746	4776.73
1.8376	4777.96
1.83774	4786.97
1.83788	4796.59
1.83802	4805.62
1.83817	4814.26
1.83831	4823.55
1.838448	4833.31
1.83859	4844.28
1.83873	4855.72
1.83887	4867.811
1.83901	4880.7
1.83915	4895.93
1.8393	4911.4
1.83944	4926.56
1.83958	4941.32
1.83972	4952.33
1.83986	4960.05
1.84	4966.61
1.84014	4973.835
1.84028	4982.9
1.84043	4991.92
1.84057	5000.68
1.84071	5007.51
1.84085	5013.32
1.84099	5019.1
1.84113	5024.79
1.84128	5031.6
1.841417	5040.14
1.84156	5048.8
1.8417	5056.51
1.84184	5062.22
1.84198	5066.84
1.84213	5070.6
1.842267	5074.48
1.84241	5078.09
1.84255	5081.67
1.84269	5086.5
1.84283	5092.49
1.84298	5098.25
1.84312	5103.55
1.84326	5107.47
1.8434	5110.08
1.84354	5112.6
1.84369	5115.29
1.84383	5117.72
1.84397	5120.93
1.844112	5126.3
1.844254	5131.54
1.8444	5136.73
1.84454	5140.83
1.84468	5143.88
1.84482	5144.14
1.84496	5143.11
1.84511	5140.7
1.84525	5136.56
1.84539	5132.61
1.84553	5129.74
1.84568	5128.3
1.84582	5127.98
1.84596	5129.03
1.8461	5132.55
1.84625	5137.53
1.846388	5143.26
1.84653	5151.15
1.84667	5160.2
1.84682	5169.25
1.84696	5177.85
1.8471	5183.73
1.84724	5187.01
1.84739	5188.75
1.84753	5188.5
1.84767	5186.76
1.84781	5182.4
1.84796	5177.22
1.8481	5172.61
1.84824	5172
1.84838	5172.69
1.84853	5172.96
1.84867	5171.04
1.84881	5167.34
1.84896	5163.01
1.8491	5158.65
1.84924	5154.87
1.84938	5153.18
1.84953	5152.38
1.84967	5153.07
1.84981	5156.14
1.84996	5160.53
1.8501	5168.31
1.85024	5167.877
1.85039	5167.94
1.85053	5170.9
1.85067	5175.96
1.85081	5182.57
1.85096	5190.92
1.8511	5201.42
1.85124	5212.08
1.85139	5221.09
1.85153	5225.62
1.85167	5228.86
1.85182	5231.49
1.851961	5232.81
1.8521	5232.31
1.85225	5226.07
1.852391	5221.1
1.85253	5217.13
1.85268	5214.79
1.85282	5213.269
1.852965	5212.436
1.85311	5212.12
1.85325	5211.22
1.8534	5209.87
1.85354	5207.24
1.85368	5207.23
1.85383	5209.93
1.85397	5211.87
1.85411	5213.58
1.85426	5214.53
1.8544	5212.98
1.85455	5208.67
1.854689	5203.94
1.85483	5198.8
1.85498	5195.97
1.85512	5193.61
1.85526	5191.85
1.85541	5190.87
1.85555	5190.51
1.8557	5190.85
1.85584	5191.68
1.85598	5193.043
1.85613	5194.91
1.85627	5196.45
1.85642	5199.95
1.85656	5204.65
1.8567	5207.59
1.85685	5209.603
1.856993	5207.79
1.85714	5206.7
1.85728	5205.33
1.85743	5203.8
1.85757	5201.14
1.85771	5198.1
1.85786	5193.51
1.858	5187.15
1.85815	5179.4
1.85829	5171.68
1.858436	5164.01
1.85858	5156.64
1.85872	5151.335
1.85887	5145.97
1.85901	5142.28
1.85916	5139.19
1.8593	5136.92
1.85945	5134.95
1.85959	5132.53
1.85974	5128.63
1.85988	5123.74
1.860026	5118.23
1.86017	5111.04
1.86032	5102.39
1.86046	5092.74
1.860605	5081.07
1.86075	5068.082
1.86089	5054.08
1.86104	5043.43
1.86118	5033.36
1.86133	5022.394
1.86147	5007.52
1.86162	5001.373
1.86176	4999.03
1.86191	5000.66
1.862054	5003.41
1.8622	5007.207
1.86234	5011.68
1.86249	5015.82
1.86263	5019.14
1.86278	5020.78
1.86292	5021.51
1.86307	5014.19
1.86322	5014.45
1.86336	5014.89
1.86351	5014.98
1.86365	5013.73
1.8638	5010.72
1.86394	5006.23
1.86409	5000.03
1.86423	4992.74
1.86438	4984.39
1.86452	4975.54
1.86467	4966.63
1.86481	4957.522
1.86496	4948.55
1.8651	4939.729
1.86525	4931.3
1.865396	4923.06
1.86554	4915.34
1.86569	4908.186
1.86583	4901.1
1.86598	4896.99
1.86612	4893.96
1.86627	4892.14
1.86642	4889.84
1.86656	4885.64
1.86671	4881.86
1.866853	4877.8
1.867	4873.83
1.86714	4869.605
1.86729	4865.57
1.86744	4862.87
1.86758	4860.4
1.86773	4858.8
1.86787	4856.87
1.86802	4855.59
1.86817	4852.38
1.86831	4847.18
1.86846	4841.08
1.8686	4835.98
1.86875	4830.81
1.8689	4825.752
1.86904	4821.09
1.869189	4816.11
1.86934	4810.89
1.86948	4805.69
1.86963	4800.06
1.86977	4794.16
1.86992	4788.13
1.87007	4782.08
1.870213	4775.93
1.87036	4769.62
1.87051	4763.21
1.87065	4756.81
1.8708	4750.416
1.87095	4744.18
1.87109	4737.811
1.87124	4731.63
1.87138	4725.16
1.87153	4718.61
1.87168	4711.97
1.87182	4705.21
1.87197	4698.52
1.87212	4689.85
1.87226	4680.62
1.87241	4671.3
1.87256	4662.96
1.872705	4655.26
1.872852	4649.18
1.873	4643.33
1.87315	4637.82
1.87329	4632.35
1.87344	4626.78
1.87359	4622.167
1.87373	4616.57
1.87388	4608.82
1.87403	4596.84
1.87417	4584.22
1.87432	4569.01
1.87447	4553.37
1.87462	4537.29
1.87476	4520.82
1.87491	4506.49
1.87506	4493.65
1.8752	4480.91
1.87535	4468.41
1.8755	4455.28
1.87565	4442.38
1.87579	4427.99
1.87594	4414.95
1.87609	4402.54
1.876235	4390.89
1.87638	4380.64
1.87653	4370.94
1.87668	4361.15
1.87682	4351.52
1.87697	4341.17
1.87712	4330.36
1.87727	4319.28
1.87741	4306.95
1.87756	4293.79
1.87771	4279.69
1.87786	4264.43
1.87801	4248.07
1.87815	4231.21
1.8783	4214.68
1.87845	4198.61
1.8786	4184.49
1.87874	4171.31
1.87889	4158.45
1.87904	4145.89
1.87919	4132.8
1.87934	4119.49
1.87948	4104.74
1.87963	4089.6
1.87978	4074.05
1.87993	4058.29
1.88008	4042.66
1.88022	4025.49
1.88037	4008.188
1.88052	3990.67
1.88067	3973.2
1.88082	3956.12
1.88096	3939.39
1.881112	3923
1.88126	3908.502
1.88141	3893.79
1.88156	3879.075
1.8817	3866.06
1.88185	3853.29
1.882	3841.23
1.88215	3827.74
1.8823	3812.06
1.88245	3796.85
1.8826	3781.67
1.88274	3766.46
1.882892	3751.6
1.88304	3737.12
1.88319	3723.96
1.88334	3711.16
1.88349	3698.6
1.88363	3686.54
1.88378	3674.98
1.88393	3663.1
1.88408	3653.03
1.88423	3643.53
1.88438	3634.39
1.88453	3625.2
1.88468	3615.39
1.88482	3604.321
1.88497	3590.56
1.88512	3576.82
1.88527	3561.8
1.88542	3546.34
1.88557	3530.16
1.88572	3513.82
1.88587	3497.58
1.88602	3482.344
1.88616	3467.19
1.88631	3451.83
1.88646	3428.99
1.88661	3412.16
1.88676	3398.77
1.88691	3388.65
1.88706	3383.83
1.88721	3381.575
1.88736	3380.02
1.88751	3377.804
1.88766	3371.53
1.88781	3364.79
1.887955	3356.832
1.8881	3348.58
1.88825	3326.66
1.8884	3310.47
1.88855	3298.86
1.8887	3288.667
1.88885	3278.92
1.889001	3268.18
1.88915	3256.64
1.8893	3245.07
1.88945	3233.17
1.8896	3221.43
1.88975	3209.886
1.8899	3198.47
1.89005	3187.18
1.8902	3176.05
1.89035	3165.085
1.8905	3152.82
1.89065	3139.77
1.8908	3126.52
1.89095	3113.06
1.8911	3099.62
1.89125	3087.21
1.8914	3075.82
1.89155	3065.72
1.8917	3055.78
1.89185	3045.83
1.892	3036.03
1.89215	3026.46
1.8923	3017.04
1.89245	3008.97
1.8926	3001.35
1.89275	2994.58
1.8929	2989.89
1.89305	2985.376
1.8932	2980.83
1.89335	2975.21
1.8935	2966.96
1.89365	2956.26
1.8938	2943.82
1.89395	2930.53
1.8941	2916.66
1.89425	2902.62
1.8944	2889.76
1.89455	2877.62
1.8947	2866.44
1.894851	2856.27
1.895	2846.386
1.895152	2836.79
1.8953	2829.29
1.89545	2822.24
1.8956	2815.39
1.89575	2807.87
1.895905	2798.13
1.89606	2787.12
1.89621	2775.32
1.89636	2762.72
1.89651	2749.05
1.89666	2735.48
1.89681	2722.65
1.89696	2711.438
1.89711	2701.55
1.897262	2693.45
1.89741	2688.02
1.89756	2683.45
1.89771	2678.8
1.89787	2674.32
1.89802	2667.52
1.89817	2661.2
1.89832	2654.38
1.89847	2646.23
1.898621	2637.36
1.89877	2626.37
1.89892	2612.97
1.89907	2597.45
1.89923	2581.99
1.899377	2566.61
1.89953	2551.61
1.89968	2538.86
1.89983	2527.1
1.89998	2516.82
1.90013	2507.958
1.900285	2500.13
1.90044	2493.26
1.90059	2487.22
1.90074	2481.84
1.90089	2476.48
1.90104	2471.18
1.90119	2465.4
1.90135	2459.385
1.9015	2453.397
1.90165	2446.98
1.9018	2439.36
1.90195	2430.82
1.9021	2420.3
1.90226	2407.74
1.90241	2396.52
1.90256	2386.29
1.90271	2376.77
1.90286	2366.57
1.90301	2356.22
1.90317	2345.77
1.90332	2335.28
1.90347	2324.88
1.903622	2314.57
1.90377	2304.41
1.903926	2294.45
1.904078	2284.85
1.90423	2274.93
1.90438	2264.96
1.90453	2255.16
1.90469	2245.19
1.90484	2235.58
1.90499	2226.85
1.905143	2218.85
1.9053	2211.23
1.90545	2204.08
1.9056	2197.28
1.90575	2190.69
1.9059	2184.167
1.90606	2177.32
1.90621	2170.97
1.90636	2164.94
1.90651	2158.72
1.90667	2152.13
1.90682	2144.5
1.90697	2136.42
1.907124	2126.33
1.90728	2113.69
1.90743	2100.46
1.90758	2087.19
1.90773	2073.93
1.90789	2062.07
1.90804	2051.19
1.90819	2040.91
1.90835	2031.36
1.9085	2022.92
1.908651	2016.04
1.9088	2010.92
1.90896	2007.3
1.90911	2005.33
1.90926	2003.67
1.90942	2001.76
1.90957	1998.44
1.90972	1993.65
1.90987	1987.17
1.91003	1978.49
1.91018	1967.85
1.91033	1956.2
1.91049	1944.08
1.91064	1931.7
1.91079	1919.82
1.910946	1908.22
1.9111	1897.12
1.91125	1886.26
1.91141	1875.53
1.911559	1865.61
1.91171	1856.25
1.91187	1847.24
1.912019	1839.65
1.91217	1834.293
1.91233	1830.06
1.91248	1827.37
1.91263	1824.99
1.91279	1822.39
1.91294	1818.5
1.91309	1814.57
1.913247	1809.9
1.9134	1804.65
1.91355	1799.004
1.91371	1792.67
1.91386	1785.75
1.91402	1778.17
1.91417	1770.1
1.91432	1761.53
1.91448	1752.512
1.91463	1743.04
1.91478	1733.094
1.91494	1722.79
1.915092	1712.04
1.91525	1702.146
1.9154	1691.43
1.91555	1680.26
1.91571	1668.71