File: bartels lab/3642 MoS2 on 1012 WG/Raman_5_21_2015_Dominic/C3_R2/python files used/3642_8401x_3256y/3642 8432x 3298y Pl 600 T2 D1 100x.txt
1.78927	3319.72
1.7894	3362.04
1.78953	3389.78
1.78967	3417.27
1.7898	3423.25
1.78993	3427.04
1.79006	3424.43
1.790198	3418.28
1.79033	3410.054
1.79046	3399.17
1.7906	3388.31
1.790731	3382.95
1.79086	3396.38
1.791	3412.62
1.79113	3433.11
1.79126	3456.58
1.7914	3483.28
1.791531	3495.68
1.79166	3503
1.7918	3508.69
1.79193	3494.27
1.79206	3485.33
1.7922	3479.98
1.79233	3479.62
1.79247	3484.15
1.792599	3498.48
1.79273	3510.1
1.79287	3523.78
1.793	3538.02
1.79313	3550.26
1.79327	3559.4
1.7934	3559.56
1.79353	3558.17
1.79367	3556.5
1.793802	3555
1.79394	3554.69
1.79407	3562.25
1.7942	3573.17
1.79434	3581.75
1.794471	3601.752
1.794605	3618.57
1.794739	3641.86
1.79487	3651.28
1.79501	3655.27
1.79514	3658.45
1.79527	3660.69
1.79541	3663.35
1.79554	3666.4
1.79568	3670.04
1.79581	3674.67
1.795945	3680.04
1.79608	3687.93
1.79621	3696.76
1.79635	3705.67
1.79648	3712.06
1.796616	3720.094
1.79675	3728.01
1.79688	3735.74
1.79702	3742.75
1.79715	3749.26
1.79729	3754.54
1.79742	3759.23
1.797556	3762.66
1.79769	3765.23
1.79782	3767.5
1.79796	3769.52
1.79809	3775.73
1.79823	3779.35
1.79836	3794.63
1.7985	3809.11
1.79863	3822.37
1.79877	3833.925
1.798901	3843.96
1.79904	3852.53
1.79917	3857.63
1.7993	3861.72
1.79944	3864.84
1.79957	3867.47
1.799709	3870.23
1.79984	3875.4
1.79998	3880.15
1.80011	3884.79
1.80025	3889.33
1.80038	3893.56
1.80052	3897.36
1.80065	3898.67
1.80079	3899.44
1.80092	3900.24
1.80106	3901.39
1.80119	3903.96
1.80133	3907.02
1.80146	3910.81
1.8016	3915.39
1.80173	3921.24
1.80187	3927.46
1.802	3934.28
1.80214	3941.49
1.80227	3948.74
1.80241	3955.46
1.80254	3961.65
1.80268	3968.36
1.80281	3974.88
1.80295	3981.36
1.80308	3987.2
1.803219	3991.28
1.80335	3992.79
1.80349	3994.45
1.803625	3995.43
1.80376	3996.31
1.8039	3997.437
1.80403	3998.668
1.80417	4000.27
1.8043	4004.05
1.80444	4008.08
1.80457	4012.92
1.80471	4017.46
1.80484	4021.51
1.80498	4023.85
1.80512	4026
1.80525	4027.93
1.80539	4029.29
1.80552	4030.16
1.80566	4030.05
1.80579	4030.13
1.80593	4030.78
1.80607	4033.208
1.8062	4039.623
1.80634	4046.58
1.80647	4053.96
1.80661	4061.58
1.806744	4068.26
1.80688	4074.84
1.80702	4080.93
1.80715	4086.16
1.80729	4090.31
1.80742	4093.72
1.80756	4095.98
1.8077	4097.95
1.80783	4099.36
1.80797	4100.53
1.8081	4101.84
1.80824	4103.35
1.808376	4105.34
1.808512	4107.51
1.80865	4110.39
1.80878	4113.97
1.80892	4115.49
1.80906	4117.34
1.80919	4118.6
1.80933	4121.25
1.80947	4125.93
1.8096	4132.57
1.80974	4140.71
1.80987	4149.59
1.81001	4160.22
1.81015	4172.42
1.81028	4185.2
1.81042	4198.14
1.81056	4209.97
1.81069	4220.88
1.81083	4230.15
1.81097	4238.6
1.8111	4245.78
1.81124	4251.91
1.81138	4256.22
1.81151	4259.34
1.81165	4261.29
1.81179	4263.13
1.81192	4265.16
1.81206	4269.833
1.812196	4275.29
1.81233	4281.56
1.81247	4289.65
1.81261	4300.4
1.81274	4310.55
1.81288	4320.37
1.81302	4327.66
1.81315	4335.33
1.81329	4342.77
1.81343	4350.481
1.81356	4358.16
1.8137	4366.05
1.81384	4374.31
1.81398	4383.06
1.81411	4392.418
1.81425	4402.82
1.81439	4414.39
1.81452	4426.18
1.81466	4438.68
1.8148	4451.49
1.81494	4465.11
1.81507	4479.07
1.81521	4493.28
1.815347	4507.57
1.81548	4521.98
1.81562	4535.36
1.81576	4549.28
1.8159	4563.47
1.81603	4577.41
1.81617	4590.897
1.81631	4603.76
1.81645	4614.96
1.81658	4622.53
1.81672	4627.28
1.81686	4632.73
1.817	4640.62
1.81713	4650.08
1.81727	4662.82
1.81741	4677.79
1.817546	4694.93
1.81768	4713.79
1.81782	4735.291
1.817959	4757.16
1.8181	4778.144
1.81823	4795.27
1.818372	4809.25
1.81851	4821.51
1.81865	4820.04
1.81879	4827.36
1.81892	4828.66
1.819061	4836.67
1.8192	4845.31
1.81934	4855.27
1.81947	4865.08
1.81961	4876.25
1.81975	4888.18
1.81989	4901.09
1.82003	4916.55
1.82016	4934.13
1.8203	4945.37
1.82044	4955.46
1.82058	4965.2
1.82072	4974.71
1.82086	4984.94
1.82099	4995.02
1.82113	5005.34
1.82127	5014.94
1.821408	5026.49
1.82155	5038.18
1.82168	5049.82
1.82182	5061.36
1.82196	5072.92
1.8221	5084.1
1.82224	5094.92
1.82238	5103.97
1.82251	5112.78
1.82265	5121.3
1.82279	5129.65
1.82293	5137.46
1.82307	5144.68
1.823207	5151.37
1.82335	5157.47
1.82348	5163.05
1.82362	5167.92
1.82376	5172.708
1.8239	5175.95
1.82404	5178.35
1.82418	5180.14
1.824316	5180.82
1.82445	5182.5
1.82459	5184.13
1.82473	5187.64
1.82487	5190.85
1.82501	5194.52
1.82515	5198.3
1.82529	5202.39
1.82543	5206.66
1.82557	5210.1
1.8257	5212.377
1.82584	5215.15
1.82598	5218.87
1.82612	5222.5
1.82626	5225.6
1.8264	5228.417
1.82654	5231.22
1.82668	5234.64
1.82682	5238.55
1.82696	5243.09
1.82709	5248.51
1.827234	5254.44
1.82737	5261.04
1.82751	5268.561
1.82765	5277.79
1.827791	5289.83
1.82793	5301
1.82807	5310.46
1.82821	5318.63
1.82835	5326.05
1.82849	5332.61
1.82863	5338.89
1.82877	5344.53
1.82891	5349.35
1.82905	5353.84
1.82918	5357.44
1.82932	5361.124
1.82946	5364.82
1.8296	5369.125
1.82974	5374.02
1.82988	5381.13
1.83002	5390.97
1.830162	5402.18
1.8303	5421.35
1.83044	5430.83
1.83058	5440.98
1.83072	5447.42
1.83086	5452.2
1.831	5455.63
1.83114	5457.5
1.83128	5458.14
1.83142	5457.834
1.83156	5457.52
1.8317	5456.312
1.83184	5456.14
1.83198	5455.75
1.83212	5471.28
1.83226	5487.46
1.8324	5523.37
1.83254	5541.23
1.83268	5559.498
1.83282	5577.793
1.83296	5597.65
1.8331	5616.57
1.83324	5628.96
1.83338	5637.04
1.83352	5641.61
1.833661	5647.91
1.8338	5653.46
1.83394	5658.6
1.83408	5666.54
1.83422	5674.62
1.83436	5683.23
1.8345	5691.89
1.83464	5700.314
1.83478	5709.25
1.83492	5718.81
1.83506	5728.35
1.835205	5738.65
1.83535	5748.92
1.83549	5759.7
1.83563	5770.68
1.83577	5781.877
1.83591	5794.74
1.83605	5808.42
1.83619	5824.12
1.83633	5838.72
1.83647	5851.95
1.836611	5864.43
1.83675	5876.11
1.83689	5887.39
1.83703	5897.05
1.83717	5905.72
1.837315	5913.3
1.83746	5920.46
1.8376	5927.13
1.83774	5933.99
1.83788	5940.6
1.83802	5946.78
1.83816	5950.93
1.8383	5955.95
1.83844	5962.71
1.83858	5974.87
1.83872	5990.38
1.83887	6008.03
1.83901	6027.22
1.83915	6047.22
1.83929	6066.98
1.83943	6087.94
1.83957	6108.94
1.83971	6129.81
1.83985	6149.78
1.84	6168.25
1.84014	6185.23
1.84028	6200.43
1.84042	6211.74
1.84056	6215.91
1.8407	6217.37
1.84084	6226.45
1.84098	6233.72
1.84113	6237.5
1.84127	6242.15
1.84141	6248.9
1.84155	6257.35
1.84169	6266.27
1.84183	6275.86
1.84198	6286.64
1.84212	6297.08
1.84226	6306.59
1.8424	6313.769
1.84254	6317.67
1.84268	6319.64
1.84283	6318.94
1.84297	6317.86
1.843109	6317.5
1.84325	6319.57
1.84339	6321.92
1.84353	6324.8
1.84368	6327.47
1.84382	6327.96
1.84396	6330.22
1.8441	6333.87
1.84424	6339.438
1.84439	6346.78
1.84453	6355.54
1.84467	6365.4
1.84481	6375.29
1.84495	6384.14
1.8451	6389.9
1.84524	6392.11
1.84538	6393.48
1.84552	6397.29
1.84567	6402.17
1.84581	6407.53
1.84595	6412.84
1.84609	6417.38
1.84623	6421.67
1.84638	6424.9
1.84652	6427.34
1.84666	6428.46
1.8468	6428.27
1.846946	6425.97
1.84709	6423.31
1.84723	6421.16
1.84737	6421.3
1.84752	6422.85
1.84766	6425.38
1.847801	6428.81
1.84794	6433.38
1.84809	6438.72
1.84823	6445.24
1.84837	6453.89
1.84851	6462.41
1.84866	6469.37
1.8488	6470.36
1.84894	6469.93
1.84909	6468.12
1.84923	6465.7
1.84937	6463.42
1.84951	6459.43
1.84966	6445.95
1.8498	6440.39
1.84994	6438.71
1.85008	6441.65
1.850228	6447.13
1.85037	6455.38
1.85051	6464.92
1.85066	6488.1
1.8508	6498.647
1.85094	6506.981
1.85109	6513.08
1.85123	6519.67
1.85137	6525.02
1.85152	6527.8
1.85166	6525.16
1.851802	6520.26
1.85195	6509.51
1.85209	6499.12
1.85223	6491.34
1.85238	6484.89
1.85252	6480.24
1.85266	6476.936
1.85281	6474.311
1.85295	6474
1.85309	6474.84
1.85324	6476.57
1.853379	6478.69
1.85352	6480.28
1.85367	6479.9
1.85381	6479.35
1.853953	6478.08
1.8541	6475.46
1.85424	6470.77
1.85438	6463.83
1.85453	6457.05
1.85467	6450.59
1.854815	6443.35
1.85496	6437.5
1.8551	6437.52
1.85525	6443.83
1.85539	6453.604
1.85553	6462.97
1.85568	6471.53
1.85582	6477.41
1.85597	6485.564
1.85611	6489.73
1.85625	6491.09
1.8564	6489.56
1.85654	6486.22
1.85669	6483.55
1.85683	6477.49
1.85697	6456.39
1.85712	6439.771
1.85726	6428.74
1.85741	6422.37
1.85755	6419.26
1.85769	6419.35
1.85784	6421.59
1.85798	6426.74
1.858127	6433.66
1.85827	6441.91
1.85842	6450.56
1.85856	6457.18
1.8587	6461.11
1.85885	6459.49
1.85899	6462.8
1.85914	6457.2
1.85928	6450.26
1.85943	6441.73
1.85957	6432.93
1.85972	6423.49
1.85986	6413.58
1.86	6401.76
1.86015	6390.03
1.86029	6383.74
1.86044	6380.63
1.86058	6379.21
1.86073	6380.57
1.86087	6379.5
1.86102	6370.54
1.86116	6359.78
1.86131	6354.84
1.86145	6347.39
1.8616	6335.91
1.86174	6324.36
1.86189	6314.31
1.862031	6306.26
1.86218	6301.09
1.86232	6300.51
1.86247	6301.45
1.86261	6304.02
1.86276	6304.29
1.8629	6302.88
1.86305	6297.04
1.863191	6290.72
1.86334	6284.11
1.86348	6278.81
1.86363	6273.93
1.86377	6269.68
1.863917	6266.18
1.86406	6263.34
1.86421	6261.03
1.86435	6258.96
1.864498	6257.21
1.86464	6255.44
1.86479	6253.15
1.86493	6251.002
1.86508	6248.91
1.86522	6246.707
1.86537	6243.15
1.86552	6234.99
1.86566	6227.39
1.86581	6222.65
1.86595	6223.19
1.8661	6224.41
1.86624	6225.439
1.86639	6222.12
1.86653	6216.04
1.86668	6209.12
1.86683	6201.8
1.86697	6194.13
1.86712	6187.48
1.86726	6180.8
1.86741	6174.188
1.86756	6169.17
1.8677	6164.53
1.867847	6159.92
1.86799	6154.4
1.86814	6148.19
1.86828	6139.66
1.86843	6133.21
1.86858	6126.41
1.86872	6120.3
1.86887	6113.9
1.86901	6105.56
1.86916	6095.93
1.869307	6084.86
1.86945	6074.95
1.8696	6067.42
1.86975	6060.084
1.86989	6054.04
1.870038	6047.21
1.87018	6040.84
1.87033	6034.69
1.87048	6029.21
1.87062	6028.59
1.87077	6029.24
1.87092	6029.709
1.87106	6029.6
1.87121	6026.41
1.87136	6022.853
1.8715	6017.98
1.87165	6011.54
1.87179	6003.647
1.87194	5994.27
1.87209	5982.6
1.87223	5968.88
1.87238	5953.33
1.87253	5934.96
1.87267	5915.12
1.872821	5895.01
1.87297	5879.33
1.87311	5861.24
1.87326	5847.23
1.873408	5840.16
1.87355	5835.44
1.8737	5831.248
1.87385	5828
1.874	5826.42
1.87414	5829.12
1.87429	5825.53
1.87444	5818.92
1.87458	5810.39
1.87473	5800.77
1.87488	5789.67
1.87502	5777.76
1.87517	5763.48
1.87532	5748.01
1.87547	5731.85
1.875613	5714.94
1.87576	5697.52
1.87591	5680.4
1.87605	5663.3
1.876202	5646.61
1.87635	5630.19
1.8765	5614.08
1.87664	5598.53
1.87679	5583.26
1.87694	5568.36
1.877086	5553.957
1.87723	5539.7
1.87738	5525.85
1.87753	5512.86
1.87768	5499.95
1.87782	5488.03
1.87797	5476.76
1.87812	5465.66
1.87827	5454.51
1.87841	5443.43
1.87856	5432.16
1.87871	5420.49
1.87886	5405.12
1.879	5391.09
1.87915	5376.3
1.8793	5359.03
1.87945	5337.48
1.8796	5311.95
1.87974	5285.13
1.87989	5256.83
1.88004	5228.41
1.88019	5195.35
1.88034	5169.44
1.88048	5138.08
1.88063	5091.4
1.88078	5087.54
1.88093	5084.12
1.88108	5084.64
1.88122	5076.42
1.88137	5063.061
1.88152	5043.05
1.881668	5018.374
1.88182	4992.46
1.88196	4967.63
1.88211	4943.07
1.88226	4935.29
1.88241	4917.269
1.88256	4899.17
1.88271	4881.67
1.88285	4865.46
1.883	4849.83
1.88315	4834.19
1.8833	4818.7
1.883448	4803.124
1.8836	4788.1
1.88375	4769.999
1.88389	4751.03
1.884042	4732.14
1.88419	4713.79
1.88434	4695.87
1.884488	4679.7
1.88464	4664.05
1.88479	4648.94
1.88493	4634.53
1.88508	4620.9
1.88523	4608.01
1.88538	4595.65
1.88553	4584.31
1.88568	4573.374
1.88583	4563.56
1.88598	4554.84
1.88612	4546.38
1.88627	4537.89
1.88642	4529.02
1.88657	4518.11
1.88672	4505.89
1.88687	4492.64
1.88702	4477.66
1.88717	4460.75
1.88732	4442
1.88747	4419.792
1.88762	4397.03
1.88776	4373.98
1.88791	4352.48
1.888063	4332.66
1.88821	4314.75
1.88836	4299.16
1.88851	4285.44
1.88866	4273.93
1.88881	4270.14
1.88896	4261.772
1.88911	4253.19
1.88926	4242.07
1.88941	4229.73
1.88956	4216.4
1.88971	4203.12
1.88986	4189.76
1.89001	4177.52
1.89016	4166.84
1.8903	4156.53
1.89045	4148.58
1.890604	4141.85
1.89075	4142.59
1.8909	4124.85
1.89105	4105.42
1.8912	4088.418
1.89135	4071.94
1.8915	4056.73
1.89165	4042.03
1.8918	4028.25
1.891952	4014.428
1.892102	4000.76
1.892252	3987.512
1.8924	3974.52
1.892552	3963.47
1.8927	3954.39
1.89285	3945.86
1.893	3937.66
1.89315	3929.53
1.8933	3921.24
1.89345	3913.13
1.8936	3904.49
1.89375	3895.12
1.8939	3884.865
1.89405	3873.32
1.8942	3860.54
1.894354	3846.31
1.8945	3829.79
1.89465	3811.57
1.89481	3792.81
1.89496	3773.429
1.89511	3755.04
1.89526	3737.38
1.89541	3721.04
1.89556	3705.94
1.89571	3692.7
1.89586	3680.83
1.89601	3670.14
1.89616	3660.69
1.89631	3654.93
1.89646	3650.62
1.89661	3646.05
1.89676	3640.21
1.89691	3633.36
1.89706	3625.71
1.89721	3616.05
1.89737	3604.927
1.89752	3592.23
1.89767	3578.55
1.897818	3563.67
1.89797	3548.03
1.89812	3531.85
1.89827	3514.57
1.89842	3497.15
1.89857	3479.51
1.89872	3462.23
1.89887	3447.49
1.89903	3434.45
1.89918	3422.18
1.89933	3409.08
1.89948	3396.19
1.89963	3381.85
1.89978	3370.04
1.899933	3359.49
1.90008	3351.925
1.90024	3345.33
1.90039	3338.7
1.90054	3331.56
1.90069	3323.835
1.900841	3315.41
1.90099	3305.45
1.90114	3294.43
1.9013	3282.43
1.90145	3269.78
1.9016	3256.05
1.90175	3242.09
1.9019	3227.9
1.90205	3214
1.9022	3200.19
1.90236	3186.82
1.902508	3173.39
1.90266	3160.89
1.90281	3148.79
1.90296	3137.07
1.903115	3125.345
1.90327	3113.64
1.90342	3101.97
1.90357	3090.21
1.90372	3077.614
1.90387	3064.83
1.904026	3052.34
1.90418	3040.1
1.90433	3028.06
1.90448	3016.46
1.904634	3004.89
1.90479	2994.49
1.90494	2984.36
1.90509	2974.344
1.90524	2964.11
1.90539	2953.83
1.90555	2943.04
1.905699	2932.06
1.90585	2920.79
1.906	2909.23
1.90616	2897.44
1.90631	2885.85
1.90646	2873.51
1.90661	2860.82
1.90677	2848.17
1.90692	2835.46
1.90707	2822.81
1.90722	2810.21
1.90738	2800.07
1.90753	2791.57
1.90768	2783.15
1.90783	2774.42
1.90799	2765.35
1.908138	2754.48
1.90829	2743.78
1.90844	2732.22
1.9086	2720.71
1.90875	2709.333
1.9089	2698.08
1.90905	2687.31
1.90921	2677.55
1.90936	2668.48
1.90951	2660.21
1.90967	2652.54
1.90982	2645.58
1.90997	2638.88
1.91012	2632.96
1.91028	2626.99
1.91043	2621.72
1.91058	2610.32
1.91074	2592.71
1.91089	2571.52
1.91104	2548.96
1.911196	2527.97
1.91135	2510.7
1.9115	2497.32
1.91166	2490.67
1.91181	2484.66
1.91196	2477.96
1.91212	2470.95
1.91227	2457.324
1.91242	2441.3
1.91258	2435.43
1.91273	2428.04
1.91288	2421.01
1.91304	2414.08
1.91319	2407.58
1.91334	2400.82
1.9135	2394.17
1.91365	2387.05
1.9138	2379.53
1.913957	2371.35
1.91411	2361.95
1.91426	2351.69
1.914418	2340.48
1.91457	2327.93
1.91473	2315.12
1.91488	2300.36
1.915033	2285.53
1.91519	2270.81
1.91534	2256.92
1.91549	2243.94
1.91565	2234.87
1.9158	2227.97
1.91596	2221.782
1.91611	2216.59
1.91626	2211.78
1.91642	2205.814
1.91657	2199.96
1.91673	2194.04
1.91688	2187.657
1.91703	2181.18
1.917189	2174.16
1.91734	2166.06
1.9175	2157.67
1.91765	2149.12
1.91781	2140.71
1.91796	2132.64
1.91811	2125.012
1.91827	2118.38
1.91842	2114.42
1.91858	2109.7
1.918732	2104.05
1.91889	2094.94
1.91904	2085.81
1.9192	2076.37
1.91935	2067.4
1.9195	2058.67
1.919659	2050.875
1.91981	2043.8
1.91997	2037.5
1.92012	2032.02
1.92028	2027.27
1.92043	2023.439
1.92059	2020.4
1.92074	2017.96
1.9209	2015.9
1.92105	2014.17
1.92121	2012.12
1.92136	2009.575
1.92152	2006.36
1.92167	2002.43
1.92183	1997.75
1.92198	1992.45
1.92214	1986.37
1.92229	1979.333
1.92245	1971.31
1.9226	1962.27
1.92276	1952.949
1.92291	1943.61
1.92307	1934.77
1.92322	1927.71
1.92338	1921.35
1.923532	1915.79
1.92369	1910.97
1.92384	1906.61
1.923998	1902.98
1.92415	1899.923
1.92431	1897.85
1.924464	1896.17
1.92462	1896.23
1.92477	1896.94
1.92493	1896.68
1.92509	1894.31
1.92524	1890.76
1.925397	1886.611
1.92555	1881.86
1.92571	1876.56
1.92586	1871.05
1.92602	1865.5
1.92618	1860.48
1.92633	1855.57
1.92649	1851.85
1.92664	1848.381
1.9268	1846.99
1.926954	1845.9
1.92711	1844.83
1.92727	1843.7
1.92742	1841.43
1.92758	1837.41
1.92773	1831.39
1.92789	1825.47
1.92805	1817.64
1.9282	1809.52
1.92836	1801.23
1.92851	1794.82
1.92867	1791.72
1.928826	1788.03
1.928982	1784.35
1.92914	1780.32
1.92929	1776.24
1.92945	1773.38
1.92961	1770.25
1.92976	1767.17
1.92992	1763.65
1.930076	1759.54
1.93023	1754.3
1.93039	1746.45
1.93055	1738.099
1.9307	1729.3
1.93086	1721.4
1.93101	1715.69
1.93117	1710.41
1.93133	1705.41
1.93148	1700.68
1.931641	1695.94
1.9318	1690.993
1.93195	1685.1
1.93211	1678.68
1.93227	1672.03
1.93242	1664.86
1.93258	1657.53
1.93274	1650.38
1.93289	1643.56
1.93305	1637.17
1.93321	1631.16
1.93337	1625.36
1.93352	1619.76
1.93368	1614.42
1.93384	1608.8
1.93399	1603.83
1.93415	1599.44
1.93431	1595.64
1.93446	1592.24
1.93462	1589.06
1.93478	1585.54
1.93494	1581.42
1.93509	1576.21
1.93525	1570.91
1.935408	1565.47
1.93557	1559.83
1.93572	1554
1.93588	1548.28
1.93604	1542.8
1.93619	1538.51
1.93635	1534.73
1.93651	1530.38
1.93667	1521.87
1.93682	1514.23
1.936982	1507.46
1.93714	1504.38
1.9373	1503.55
1.93745	1505.06