File: bartels lab/3642 MoS2 on 1012 WG/Raman_5_21_2015_Dominic/C3_R2/python files used/3642_8401x_3256y/PL600.txt
1.7708	2694.241
1.77093	2699.59
1.77106	2705
1.77119	2714.54
1.77132	2724.47
1.771448	2733.51
1.77158	2742.74
1.77171	2752.311
1.771839	2762.282
1.77197	2773.28
1.7721	2784.157
1.77223	2794.729
1.77236	2804.4
1.77249	2811.53
1.77262	2817.88
1.77275	2822.94
1.77288	2827.37
1.77301	2831.22
1.77314	2835.575
1.77327	2840.14
1.77341	2844.9
1.77354	2849.9
1.77367	2854.29
1.773797	2858.28
1.77393	2861.94
1.77406	2865.01
1.77419	2867.67
1.77432	2870.19
1.77445	2872.65
1.77458	2875.24
1.77471	2878.13
1.77484	2881.66
1.77497	2885.52
1.775105	2890.1
1.77524	2895.62
1.77537	2901.84
1.7755	2908.56
1.77563	2917.33
1.77576	2927.83
1.77589	2938.93
1.77602	2950.573
1.77615	2960.17
1.77628	2968.41
1.776415	2971.44
1.77655	2972.33
1.77668	2973.04
1.77681	2970.48
1.77694	2965.12
1.77707	2987.6
1.777202	2998.13
1.77733	3005.71
1.77746	3010.07
1.777596	3009.87
1.77773	2995.04
1.77786	2997.95
1.77799	2999.58
1.77812	3013.61
1.77825	3020.19
1.77838	3027.29
1.77852	3036.6
1.77865	3046.499
1.77878	3055.677
1.77891	3065.68
1.77904	3067.15
1.77917	3066.52
1.7793	3069.67
1.77944	3078.46
1.77957	3099.82
1.7797	3103.27
1.77983	3106.78
1.77996	3110.87
1.78009	3114.66
1.780226	3118.56
1.78036	3122.14
1.78049	3124.89
1.78062	3127.28
1.780753	3128.76
1.78088	3128.64
1.78102	3128.77
1.78115	3129.43
1.78128	3132.11
1.78141	3134.96
1.78154	3138.42
1.78168	3141.66
1.78181	3147.6
1.78194	3154.35
1.78207	3161.8
1.782204	3169.07
1.78234	3175.58
1.78247	3181.88
1.7826	3187.86
1.78273	3193.43
1.78286	3198.85
1.783	3203.7
1.78313	3207.15
1.78326	3210.09
1.78339	3212.74
1.78353	3216.022
1.78366	3221.04
1.78379	3226.89
1.78392	3232.4
1.78405	3237.678
1.784187	3243.97
1.78432	3250.81
1.78445	3258.14
1.784584	3266.15
1.78472	3274.06
1.784849	3281.35
1.78498	3287.48
1.78511	3293.48
1.78525	3298.71
1.78538	3303.91
1.78551	3308.91
1.78564	3314.37
1.78578	3322
1.78591	3331.02
1.78604	3339.91
1.78617	3348.36
1.78631	3356.32
1.78644	3362.7
1.78657	3369.19
1.78671	3376.02
1.78684	3383.89
1.786971	3390.29
1.7871	3394.36
1.78724	3397.2
1.78737	3399.91
1.7875	3402.67
1.78764	3406.48
1.78777	3411.67
1.7879	3419.33
1.78803	3432.43
1.78817	3448.44
1.7883	3455.425
1.788433	3462.77
1.788566	3469.998
1.788699	3477.44
1.78883	3484.71
1.78897	3492.16
1.7891	3499.8
1.78923	3507.62
1.78936	3515.92
1.789498	3524.29
1.78963	3532.69
1.78976	3542.13
1.7899	3551.81
1.790031	3561.498
1.79016	3571.56
1.7903	3580.98
1.79043	3588.78
1.79056	3596.27
1.7907	3603.2
1.79083	3610.15
1.79096	3616.87
1.7911	3624.832
1.79123	3632.55
1.79136	3638.02
1.7915	3641.98
1.79163	3648.405
1.79177	3655.83
1.791899	3664.29
1.79203	3673.04
1.79217	3682.34
1.7923	3691.91
1.79243	3701.58
1.79257	3711.09
1.792701	3722.1
1.79283	3733.5
1.79297	3745.46
1.793102	3758.01
1.79324	3770.47
1.79337	3782.41
1.7935	3794.604
1.79364	3806.57
1.79377	3818.66
1.79391	3830.86
1.79404	3843
1.794173	3855.04
1.794307	3866.92
1.794441	3878.43
1.79458	3888.89
1.794709	3899.39
1.794843	3909.56
1.79498	3919.48
1.79511	3929.25
1.79525	3938.94
1.79538	3948.75
1.79551	3959.052
1.79565	3969.53
1.79578	3979.82
1.79592	3991.61
1.79605	4003.91
1.79618	4016.71
1.796319	4029.28
1.79645	4040.8
1.79659	4052.45
1.79672	4063.92
1.79686	4074.875
1.79699	4085.51
1.79713	4096.43
1.79726	4107.34
1.797394	4118.34
1.79753	4129.75
1.79766	4140.88
1.7978	4152.126
1.79793	4162.96
1.79807	4173.49
1.7982	4183.3
1.79834	4191.58
1.79847	4197.93
1.79861	4204.49
1.79874	4210.4
1.79887	4217.06
1.79901	4222.66
1.79914	4228.18
1.79928	4234.3
1.79941	4243.16
1.79955	4253.28
1.79968	4264.78
1.799818	4280.02
1.79995	4296.4
1.80009	4311.93
1.80022	4326.95
1.80036	4341.41
1.80049	4355.09
1.80063	4367.99
1.80076	4380.98
1.8009	4393.564
1.80103	4414.01
1.80117	4426.21
1.8013	4434.74
1.80144	4440.5
1.80157	4444.21
1.80171	4444.07
1.80184	4442.51
1.80198	4441.84
1.80211	4442.05
1.802249	4441.98
1.80238	4441.856
1.80252	4445.29
1.80265	4450.145
1.80279	4455.98
1.80293	4463.14
1.80306	4471.96
1.8032	4482.002
1.80333	4493.2
1.80347	4504.69
1.8036	4516.29
1.803738	4527.001
1.80387	4539.958
1.80401	4547.59
1.80414	4556.24
1.80428	4564.35
1.80442	4573.002
1.80455	4582.88
1.804687	4596.88
1.80482	4615.58
1.80496	4642.2
1.805094	4622.08
1.80523	4624.73
1.80537	4628.68
1.8055	4632.73
1.80564	4636.77
1.80577	4641.27
1.80591	4645.41
1.80604	4649.68
1.80618	4654.24
1.80632	4659.22
1.80645	4664.85
1.80659	4671.65
1.80672	4679.26
1.80686	4687.63
1.807	4696.97
1.80713	4707.28
1.80727	4719.252
1.8074	4731.64
1.80754	4744.3
1.80768	4753.16
1.80781	4761.59
1.80795	4770.53
1.808085	4780.16
1.80822	4791.376
1.80836	4803.8
1.80849	4815.74
1.80863	4826.82
1.80877	4833.77
1.8089	4839.4
1.80904	4843.085
1.80918	4846.3
1.80931	4850.64
1.809448	4855.76
1.80958	4861.36
1.80972	4869.64
1.80986	4878.61
1.80999	4887.68
1.81013	4895.14
1.81027	4901.94
1.8104	4909.03
1.81054	4916.47
1.81068	4925.751
1.81081	4937.48
1.81095	4948.64
1.81109	4959.05
1.81122	4970.5
1.81136	4982.26
1.8115	4995.27
1.81163	5009.26
1.81177	5024.5
1.81191	5041.36
1.81204	5060.32
1.81218	5080.94
1.81232	5103.87
1.81245	5123.16
1.81259	5139.27
1.81273	5153.04
1.81287	5164.98
1.813	5176.27
1.81314	5185.38
1.81328	5195.12
1.81341	5206.957
1.81355	5229.05
1.81369	5251.57
1.81382	5272.35
1.81396	5292.44
1.8141	5310.79
1.814236	5318.53
1.81437	5327.57
1.81451	5337.92
1.81465	5350.313
1.814785	5363.58
1.81492	5376.95
1.81506	5388.17
1.815197	5390.356
1.81533	5404.38
1.81547	5420.186
1.815609	5436.32
1.81575	5454.27
1.81588	5473.91
1.81602	5495.87
1.81616	5520.89
1.8163	5550.73
1.816434	5578.35
1.81657	5604.45
1.81671	5627.96
1.81685	5649.64
1.81698	5669.855
1.81712	5689.52
1.81726	5708.45
1.8174	5729.17
1.81753	5742.75
1.81767	5762.74
1.81781	5785.01
1.81795	5809.76
1.818086	5836.25
1.818224	5861.75
1.81836	5885.96
1.8185	5907.07
1.81864	5927.74
1.81878	5946.65
1.81891	5963.5
1.81905	5978.81
1.81919	5993.5
1.81933	6007.07
1.81947	6021.2
1.8196	6035.3
1.81974	6044.29
1.81988	6052.82
1.82002	6062.95
1.82016	6074.67
1.82029	6088.167
1.82043	6103.28
1.82057	6120.19
1.82071	6139.12
1.82085	6159.89
1.82099	6182.21
1.82112	6206.07
1.82126	6230.76
1.8214	6254.23
1.82154	6276.95
1.82168	6299.56
1.82182	6321.6
1.82195	6342.55
1.82209	6357.6
1.82223	6369.99
1.822369	6379.97
1.82251	6387.99
1.82265	6393.33
1.82278	6395.84
1.82292	6395.98
1.82306	6394.65
1.8232	6394.91
1.82334	6399.96
1.82348	6408.08
1.82362	6417.53
1.82376	6428.55
1.823894	6440.24
1.82403	6453.22
1.82417	6466.97
1.82431	6481.61
1.82445	6496.3
1.82459	6513.13
1.82473	6527.67
1.82487	6539.11
1.825	6549.84
1.82514	6560.208
1.82528	6570.47
1.82542	6579.76
1.82556	6588.46
1.8257	6596.77
1.82584	6604.57
1.825978	6612.12
1.826117	6618.59
1.82626	6633.19
1.8264	6647.19
1.82653	6659.59
1.82667	6671.11
1.82681	6681.62
1.82695	6690.89
1.82709	6699.63
1.82723	6708.25
1.82737	6721.24
1.82751	6728.48
1.82765	6733.88
1.82779	6738.54
1.82793	6742.89
1.82807	6747.4
1.82821	6751.3
1.82835	6755.6
1.82849	6760.23
1.828625	6765.66
1.82876	6772.23
1.8289	6781.7
1.82904	6790.93
1.82918	6797.833
1.82932	6804.34
1.82946	6812.45
1.8296	6821.52
1.82974	6821.94
1.82988	6843.26
1.83002	6864.21
1.830161	6925.59
1.8303	7008.05
1.83044	7006.95
1.83058	6997.59
1.83072	6959.72
1.83086	6956.98
1.831	6957.93
1.83114	6963.82
1.83128	6976.77
1.83142	6990.22
1.83156	6992.71
1.8317	7003.187
1.83184	7008.51
1.83198	7020.603
1.83212	7027.64
1.83226	7044.27
1.8324	7068.61
1.83254	7090.19
1.83268	7113.62
1.83282	7136.42
1.83296	7158.59
1.8331	7178.92
1.83324	7195.84
1.83338	7212.63
1.83352	7229.75
1.83366	7248.97
1.8338	7268.8
1.83394	7288.17
1.83408	7307.18
1.83422	7324.55
1.83436	7339.67
1.83451	7351.22
1.83465	7366.56
1.83479	7382.56
1.83493	7399.415
1.83507	7417.14
1.83521	7434.33
1.83535	7452.34
1.83549	7475.29
1.83563	7498.95
1.83577	7521.21
1.83591	7544.6
1.83605	7567.04
1.83619	7588.56
1.83633	7607.32
1.83647	7624.99
1.83662	7640.81
1.836756	7653.15
1.8369	7664.82
1.83704	7677.77
1.83718	7689.06
1.83732	7701.78
1.83746	7717.43
1.8376	7733.01
1.83774	7747.22
1.83788	7761.42
1.83802	7775.41
1.83817	7792.48
1.83831	7810.647
1.838448	7828.88
1.83859	7845.93
1.83873	7864.749
1.83887	7882.91
1.83901	7900.88
1.83915	7918.2
1.8393	7934.37
1.83944	7950.06
1.83958	7966.76
1.83972	7983.54
1.83986	7999.65
1.84	8013.82
1.84014	8026.12
1.84028	8036.52
1.84043	8045.48
1.84057	8053.95
1.84071	8065.15
1.84085	8069.13
1.84099	8074.27
1.84113	8080.55
1.84128	8087.76
1.841417	8095.832
1.84156	8112.03
1.8417	8119.23
1.84184	8126.708
1.84198	8135.49
1.84213	8146.5
1.842267	8160
1.84241	8174.89
1.84255	8191.17
1.84269	8208.88
1.84283	8226.36
1.84298	8242.8
1.84312	8256.53
1.84326	8268.63
1.8434	8278.59
1.84354	8286.39
1.84369	8291.87
1.84383	8295.09
1.84397	8295.83
1.844112	8294.15
1.844254	8289
1.8444	8286.06
1.84454	8285.45
1.84468	8285.07
1.84482	8284.05
1.84496	8280.85
1.84511	8276.55
1.84525	8278.64
1.84539	8280.6
1.84553	8279.98
1.84568	8276.41
1.84582	8271.41
1.84596	8265.374
1.8461	8261.11
1.84625	8258.65
1.846388	8259.93
1.84653	8262.85
1.84667	8267.03
1.84682	8269.32
1.84696	8271.748
1.8471	8279.1
1.84724	8287.97
1.84739	8296.68
1.84753	8304.05
1.84767	8312.14
1.84781	8321.7
1.84796	8330.126
1.8481	8337.51
1.84824	8339.58
1.84838	8339.38
1.84853	8337.66
1.84867	8335.3
1.84881	8333.81
1.84896	8330.76
1.8491	8327.16
1.84924	8323.59
1.84938	8320.05
1.84953	8316.63
1.84967	8313.49
1.84981	8310.459
1.84996	8308.15
1.8501	8306.07
1.85024	8304.43
1.85039	8303.54
1.85053	8303.59
1.85067	8303.88
1.85081	8304.39
1.85096	8305.6
1.8511	8307.31
1.85124	8309.38
1.85139	8311.78
1.85153	8313.72
1.85167	8312.44
1.85182	8308.876
1.851961	8301.51
1.8521	8292.63
1.85225	8283.083
1.852391	8273.627
1.85253	8266.5
1.85268	8260.27
1.85282	8254.72
1.852965	8248.9
1.85311	8241.75
1.85325	8235.26
1.8534	8229.91
1.85354	8225.84
1.85368	8222.79
1.85383	8222.48
1.85397	8226.91
1.85411	8234.62
1.85426	8239.21
1.8544	8241.07
1.85455	8240.03
1.854689	8237.33
1.85483	8232.08
1.85498	8226.67
1.85512	8220.75
1.85526	8215.3
1.85541	8210.876
1.85555	8206.22
1.8557	8201.82
1.85584	8194.5
1.85598	8186.88
1.85613	8179.18
1.85627	8171.87
1.85642	8165.87
1.85656	8161.72
1.8567	8158.22
1.85685	8154.4
1.856993	8147.35
1.85714	8136.94
1.85728	8125.6
1.85743	8115.03
1.85757	8106.14
1.85771	8096.88
1.85786	8088
1.858	8078.64
1.85815	8068.94
1.85829	8059.93
1.858436	8051.24
1.85858	8042.48
1.85872	8035.37
1.85887	8035.54
1.85901	8035.06
1.85916	8030.68
1.8593	8025.16
1.85945	8019.52
1.85959	8012.53
1.85974	7994.75
1.85988	7970.75
1.860026	7916.062
1.86017	7884.52
1.86032	7856.104
1.86046	7849.05
1.860605	7831.208
1.86075	7816.353
1.86089	7804.29
1.86104	7793.79
1.86118	7784.22
1.86133	7776.29
1.86147	7768.73
1.86162	7759.05
1.86176	7750.74
1.86191	7735.71
1.862054	7720.86
1.8622	7709.24
1.86234	7699.47
1.86249	7690.84
1.86263	7677.67
1.86278	7667.3
1.86292	7656.39
1.86307	7646.24
1.86322	7637.32
1.86336	7629.67
1.86351	7624.25
1.86365	7620.22
1.8638	7618.8
1.86394	7615.07
1.86409	7607.09
1.86423	7596.89
1.86438	7580.15
1.86452	7559.5
1.86467	7535.41
1.86481	7509.75
1.86496	7486.38
1.8651	7459.45
1.86525	7436.49
1.865396	7418.14
1.86554	7394.5
1.86569	7380.05
1.86583	7368.01
1.86598	7357.94
1.86612	7352
1.86627	7345.53
1.86642	7338.998
1.86656	7330.53
1.86671	7319.54
1.866853	7306.27
1.867	7289.59
1.86714	7268.813
1.86729	7244.67
1.86744	7218.67
1.86758	7194.63
1.86773	7174.13
1.86787	7160.75
1.86802	7145.16
1.86817	7134.21
1.86831	7133.83
1.86846	7125.47
1.8686	7116.8
1.86875	7108.42
1.8689	7099.87
1.86904	7090.96
1.869189	7081.94
1.86934	7073.12
1.86948	7064.16
1.86963	7055.39
1.86977	7047.04
1.86992	7037.49
1.87007	7026.731
1.870213	7012.13
1.87036	6998.896
1.87051	6985.87
1.87065	6970.65
1.8708	6949.91
1.87095	6922.76
1.87109	6902.32
1.87124	6882.74
1.87138	6864.06
1.87153	6846.71
1.87168	6830.13
1.87182	6814.86
1.87197	6800.82
1.87212	6788.59
1.87226	6778.002
1.87241	6768.68
1.87256	6757.96
1.872705	6745.41
1.872852	6730.77
1.873	6715.54
1.87315	6698.22
1.87329	6679.1
1.87344	6653.291
1.87359	6625.37
1.87373	6596.73
1.87388	6570.21
1.87403	6543.66
1.87417	6517.9
1.87432	6493.24
1.87447	6469.75
1.87462	6447.92
1.87476	6428.915
1.87491	6410.95
1.87506	6393.58
1.8752	6373.73
1.87535	6353.93
1.8755	6336.16
1.87565	6320.57
1.87579	6305.2
1.87594	6290.021
1.87609	6272.27
1.876235	6254.87
1.87638	6230.41
1.87653	6202.42
1.87668	6173.45
1.87682	6145.896
1.87697	6118.39
1.87712	6091.51
1.87727	6067.16
1.87741	6047.05
1.87756	6025.168
1.87771	6002.71
1.87786	5977.93
1.87801	5951.8
1.87815	5925.96
1.8783	5902.54
1.87845	5881.38
1.8786	5860.62
1.87874	5838.79
1.87889	5818.1
1.87904	5797.772
1.87919	5776.83
1.87934	5751.11
1.87948	5725.35
1.87963	5701.41
1.87978	5677.83
1.87993	5654.36
1.88008	5630
1.88022	5603.687
1.88037	5575.03
1.88052	5544.42
1.88067	5513.019
1.88082	5481.9
1.88096	5451.1
1.881112	5422.22
1.88126	5393.584
1.88141	5364.43
1.88156	5333.27
1.8817	5299.97
1.88185	5266.76
1.882	5233.95
1.88215	5203.97
1.8823	5175.34
1.88245	5148.16
1.8826	5123.22
1.88274	5100.54
1.882892	5084.001
1.88304	5066.53
1.88319	5049.51
1.88334	5033.24
1.88349	5018.813
1.88363	5004.49
1.88378	4989.41
1.88393	4971.43
1.88408	4951.61
1.88423	4929.26
1.88438	4903.355
1.88453	4873.23
1.88468	4842.14
1.88482	4811.46
1.88497	4781.76
1.88512	4753.61
1.88527	4727.18
1.88542	4702.74
1.88557	4680.72
1.88572	4663.27
1.88587	4646.81
1.88602	4629.58
1.88616	4612.66
1.88631	4595.24
1.88646	4577.59
1.88661	4559.62
1.88676	4541.08
1.88691	4521.79
1.88706	4501.11
1.88721	4479.96
1.88736	4458.707
1.88751	4437.37
1.88766	4417.15
1.88781	4397.14
1.887955	4377.05
1.8881	4357.19
1.88825	4338.03
1.8884	4319.231
1.88855	4300.79
1.8887	4282.33
1.88885	4263.98
1.889001	4245.5
1.88915	4226.45
1.8893	4207.97
1.88945	4190.103
1.8896	4172.11
1.88975	4154.436
1.8899	4136.69
1.89005	4118.28
1.8902	4098.18
1.89035	4076.95
1.8905	4056.52
1.89065	4039.83
1.8908	4027.51
1.89095	4017.87
1.8911	4011.22
1.89125	4004.71
1.8914	3994.42
1.89155	3982.835
1.8917	3969.67
1.89185	3954.822
1.892	3938.45
1.89215	3920.25
1.8923	3894.13
1.89245	3876.03
1.8926	3857.51
1.89275	3838.2
1.8929	3817.63
1.89305	3797.906
1.8932	3779.47
1.89335	3765.18
1.8935	3752.52
1.89365	3742.51
1.8938	3733.54
1.89395	3721.92
1.8941	3711.45
1.89425	3698.54
1.8944	3683.4
1.89455	3667.38
1.8947	3649.49
1.894851	3631.76
1.895	3615.5
1.895152	3601.23
1.8953	3586.51
1.89545	3571.99
1.8956	3555.59
1.89575	3536.57
1.895905	3517.167
1.89606	3501.36
1.89621	3487.47
1.89636	3474.14
1.89651	3461.32
1.89666	3448.42
1.89681	3435.19
1.89696	3422.498
1.89711	3410.32
1.897262	3397.93
1.89741	3385.15
1.89756	3371.96
1.89771	3357.81
1.89787	3344.61
1.89802	3332.44
1.89817	3319.65
1.89832	3305.126
1.89847	3289
1.898621	3272.44
1.89877	3256.86
1.89892	3243.42
1.89907	3230.491
1.89923	3218.27
1.899377	3206.34
1.89953	3194.37
1.89968	3183.155
1.89983	3171.86
1.89998	3160.07
1.90013	3147.17
1.900285	3132.864
1.90044	3116.27
1.90059	3099.12
1.90074	3080.4
1.90089	3062.084
1.90104	3046.22
1.90119	3030.65
1.90135	3015.58
1.9015	3001.11
1.90165	2987.59
1.9018	2974.61
1.90195	2963.13
1.9021	2952.37
1.90226	2942.14
1.90241	2932.35
1.90256	2922.88
1.90271	2913.1
1.90286	2903.29
1.90301	2893.27
1.90317	2882.99
1.90332	2873.625
1.90347	2864.2
1.903622	2854.78
1.90377	2845.03
1.903926	2835.08
1.904078	2824.61
1.90423	2812.64
1.90438	2800.83
1.90453	2788.56
1.90469	2775.87
1.90484	2762.86
1.90499	2749.6
1.905143	2736.26
1.9053	2723.09
1.90545	2710.03
1.9056	2697.24
1.90575	2684.053
1.9059	2666.77
1.90606	2654.156
1.90621	2642.521
1.90636	2631.2
1.90651	2619.968
1.90667	2608.83
1.90682	2598.13
1.90697	2586.98
1.907124	2577.16
1.90728	2567.41
1.90743	2557.67
1.90758	2547.95
1.90773	2538.15
1.90789	2527.53
1.90804	2516.95
1.90819	2506.15
1.90835	2495.21
1.9085	2484.1
1.908651	2472.8
1.9088	2461.25
1.90896	2449.53
1.90911	2437.71
1.90926	2425.12
1.90942	2412.427
1.90957	2399.45
1.90972	2386.77
1.90987	2374.51
1.91003	2362.67
1.91018	2351.01
1.91033	2339.489
1.91049	2328.03
1.91064	2317.06
1.91079	2306.272
1.910946	2295.56
1.9111	2284.623
1.91125	2270.85
1.91141	2258.17
1.911559	2246.85
1.91171	2236.22
1.91187	2226.06
1.912019	2216.61
1.91217	2208.66
1.91233	2202.32
1.91248	2196.45
1.91263	2190.63
1.91279	2184.69
1.91294	2177.481
1.91309	2170.02
1.913247	2162.219
1.9134	2153.751
1.91355	2144.96
1.91371	2135.6
1.91386	2125.53
1.91402	2114.82
1.91417	2101.09
1.91432	2088.41
1.91448	2077.271
1.91463	2067.19
1.91478	2057.59
1.91494	2048.65
1.915092	2039.65
1.91525	2032.08
1.9154	2025.77
1.91555	2019.59
1.91571	2013.016