File: bartels lab/3642 MoS2 on 1012 WG/Raman_5_21_2015_Dominic/C3_R2/python files used/3642_8401x_3256y/Raman1800.txt
650.268	59.7849
649.786	59.3818
649.306	59.2562
648.823	59.24601
648.343	59.54715
647.863	60.46336
647.38	61.182
646.9	61.6706
646.417	61.8358
645.937	62.1752
645.4541	62.26
644.974	62.4209
644.491	62.8349
644.01	63.0313
643.528	63.361
643.047	63.6579
642.564	63.8919
642.084	63.871
641.601	63.9785
641.12	64.104
640.637	64.1237
640.156	64.211
639.674	64.3339
639.193	64.37674
638.71	64.3324
638.227	64.2785
637.746	64.08078
637.263	63.7546
636.782	63.3804
636.299	63.2306
635.818	63.3854
635.335	63.3963
634.852	63.4322
634.371	63.5231
633.887	63.55304
633.406	63.4633
632.9231	63.3044
632.44	62.9483
631.959	62.9278
631.475	62.871
630.992	62.9568
630.511	62.9177
630.027	62.7955
629.544	62.5579
629.0625	62.4107
628.579	62.4457
628.096	62.6957
627.614	63.0195
627.131	63.1125
626.647	63.1832
626.163	63.3228
625.682	63.5563
625.198	63.7149
624.7146	63.62001
624.233	63.4509
623.749	63.3233
623.2655	63.2214
622.782	63.2217
622.3	63.5976
621.816	64.0361
621.332	64.7551
620.849	65.3724
620.367	65.6018
619.883	65.7347
619.3988	65.9229
618.915	66.0097
618.431	65.97995
617.949	65.7362
617.465	65.3913
616.981	64.8711
616.4967	64.2316
616.013	63.921
615.528	63.4748
615.046	63.2401
614.562	63.1499
614.078	62.50576
613.594	62.2191
613.109	61.8502
612.625	61.542
612.141	61.2182
611.656	61.11544
611.174	61.1345
610.69	61.0991
610.205	61.0357
609.721	61.3327
609.236	62.60466
608.752	62.728
608.267	62.507
607.783	61.9007
607.298	60.6128
606.814	59.92284
606.329	59.73325
605.844	59.41291
605.36	59.8026
604.875	60.0592
604.39	60.87067
603.9054	62.3925
603.421	63.23769
602.936	64.1415
602.451	64.5646
601.966	64.4732
601.4812	64.0503
600.996	64.2151
600.511	64.3889
600.026	64.4323
599.541	64.3956
599.0564	64.4065
598.571	64.359
598.0863	64.1861
597.6012	64.0152
597.116	64.0874
596.631	64.0708
596.146	63.9559
595.661	63.7665
595.175	63.69804
594.69	63.757
594.205	63.9345
593.717	63.7842
593.232	63.9416
592.747	63.9945
592.261	64.111
591.776	64.36779
591.291	64.437
590.805	64.2114
590.32	64.0557
589.832	63.8605
589.347	63.7755
588.861	63.7157
588.375	63.3656
587.89	63.1256
587.404	62.8306
586.9165	62.3293
586.431	61.7133
585.945	61.01
585.459	60.5181
584.974	60.2344
584.486	60.0093
584	59.9491
583.5141	59.8409
583.0282	59.8026
582.54	59.9888
582.054	60.2533
581.568	60.202
581.082	60.3731
580.594	60.7698
580.1084	61.0831
579.622	61.447
579.136	61.838
578.648	62.2159
578.162	62.5252
577.676	62.7774
577.188	63.037
576.701	63.1981
576.215	62.9022
575.727	62.8592
575.2406	62.9787
574.754	62.8204
574.266	62.3298
573.7796	61.8572
573.293	61.2463
572.805	60.832
572.3183	60.6133
571.832	60.06604
571.343	59.6697
570.857	59.4241
570.368	59.1947
569.882	59.2902
569.395	59.5209
568.906	59.679
568.42	59.7885
567.931	59.7628
567.444	59.8556
566.958	59.6041
566.469	59.5216
565.982	59.7239
565.493	59.8238
565.006	59.8538
564.517	60.0462
564.031	60.2569
563.542	60.4943
563.055	60.76025
562.568	61.0532
562.079	60.3567
561.592	60.1508
561.103	60.2996
560.6156	60.8851
560.126	61.245
559.639	61.545
559.15	61.6827
558.661	61.829
558.174	62.1281
557.685	62.5057
557.197	62.6351
556.708	62.6943
556.221	62.71875
555.731	62.4966
555.244	62.21904
554.755	61.8328
554.265	61.455
553.778	61.6093
553.288	61.5628
552.801	61.5379
552.311	61.3846
551.822	61.3217
551.334	61.5164
550.844	61.7031
550.357	62.0567
549.867	62.0943
549.377	62.30476
548.89	62.777
548.4	63.5379
547.91	64.2308
547.422	64.8244
546.933	65.3044
546.443	65.8607
545.955	66.2909
545.465	66.5524
544.975	66.8629
544.487	67.1701
543.997	67.2889
543.507	67.2165
543.019	67.0011
542.529	67.0387
542.039	67.0865
541.549	67.2591
541.061	67.4208
540.5705	67.6464
540.08	67.7826
539.59	68.129
539.102	68.3881
538.612	68.98159
538.121	69.5454
537.631	70.3764
537.141	71.1337
536.652	72.75399
536.1618	74.1357
535.671	75.6997
535.181	77.0194
534.69	78.2778
534.202	79.4742
533.711	80.00882
533.221	81.51651
532.73	82.1382
532.24	82.3347
531.751	81.65934
531.26	83.4119
530.77	84.8051
530.279	87.0864
529.788	89.6276
529.297	93.3134
528.807	98.5983
528.316	104.241
527.8269	109.919
527.336	117.683
526.845	127.956
526.354	139.33
525.863	154.571
525.372	173.846
524.881	198.286
524.3902	231.38
523.899	294.602
523.408	369.225
522.917	483.451
522.426	624.543
521.935	879
521.443	1091
520.952	1261
520.461	1262
519.9696	1085.5
519.478	831.597
518.987	628.932
518.496	480.192
518.004	367.691
517.513	286.111
517.021	225.0399
516.53	191.337
516.038	169.472
515.547	150.332
515.055	136.916
514.564	125.121
514.0722	116.08
513.581	108.96
513.089	101.5957
512.597	94.91185
512.106	90.4848
511.6138	86.9057
511.122	84.3317
510.63	81.5998
510.138	79.8728
509.645	78.3642
509.153	77.5474
508.661	76.4802
508.169	75.7749
507.677	74.1968
507.185	72.85788
506.693	72.2967
506.201	71.7025
505.707	71.165
505.215	70.6537
504.723	70.2969
504.231	69.73954
503.738	69.6918
503.246	69.5709
502.752	69.4659
502.2598	69.2747
501.768	69.0772
501.275	68.7298
500.783	68.0288
500.289	67.6642
499.796	67.1908
499.3038	66.7119
498.811	66.0623
498.317	65.3959
497.824	64.8452
497.332	64.2964
496.839	64.2137
496.345	64.2345
495.852	64.1724
495.36	64.0965
494.867	63.9083
494.372	63.7105
493.88	64.0581
493.3869	64.1671
492.892	64.027
492.399	63.9781
491.907	64.0206
491.412	63.9536
490.919	63.5408
490.426	63.4823
489.931	63.2341
489.438	63.3309
488.945	63.4478
488.45	63.6405
487.957	63.8199
487.464	64.0066
486.969	64.1129
486.476	64.1594
485.983	63.8987
485.488	63.5051
484.994	63.0548
484.499	62.6833
484.006	62.2057
483.513	61.80006
483.017	61.5546
482.524	61.4651
482.029	61.1481
481.535	60.6926
481.04	60.4236
480.547	60.4656
480.053	60.36
479.558	60.5738
479.064	60.8677
478.569	61.091
478.075	61.38879
477.58	61.4372
477.086	61.8267
476.59	61.5391
476.097	60.7312
475.601	59.9734
475.107	59.3937
474.611	59.2561
474.118	59.8007
473.622	60.4681
473.128	61.4591
472.6322	62.5338
472.138	63.50951
471.6424	64.89872
471.146	65.2188
470.653	64.761
470.156	64.3298
469.663	63.7777
469.166	64.2048
468.672	63.9169
468.1763	63.3624
467.68	62.8566
467.186	62.3041
466.69	61.7476
466.196	61.3469
465.6994	61.2051
465.203	61.1131
464.709	61.3421
464.213	61.9065
463.716	62.212
463.222	62.4707
462.7254	62.4402
462.231	62.4805
461.735	62.6309
461.238	63.0204
460.744	63.4232
460.247	63.6197
459.75	63.9103
459.254	64.1265
458.759	63.7405
458.263	63.6843
457.766	64.0524
457.2713	64.5378
456.775	65.0162
456.2778	65.6078
455.783	66.6143
455.286	67.2983
454.7894	67.882
454.293	68.26432
453.7977	68.3428
453.301	68.3001
452.8038	68.0482
452.307	67.7673
451.81	67.3356
451.315	66.9906
450.818	66.5352
450.321	66.5012
449.824	66.5471
449.329	66.61528
448.831	66.4777
448.334	66.5079
447.837	66.7614
447.34	67.0977
446.842	67.0697
446.347	66.8756
445.85	66.7809
445.352	66.4299
444.8551	66.1725
444.3577	65.7542
443.86	65.3971
443.363	64.7896
442.867	64.3918
442.37	63.9653
441.872	63.95256
441.375	64.0847
440.877	64.2366
440.379	64.5822
439.882	65.319
439.384	65.6716
438.886	66.0409
438.389	66.2042
437.891	66.3626
437.395	66.2536
436.897	66.2544
436.3996	66.1732
435.902	66.0184
435.404	65.5179
434.906	64.92514
434.408	64.61026
433.91	64.1249
433.412	63.8477
432.914	63.8715
432.416	63.7074
431.918	63.7902
431.42	63.7594
430.922	63.703
430.4234	63.9454
429.9252	64.5426
429.427	65.0668
428.929	65.4887
428.43	65.8721
427.932	65.8895
427.434	65.9626
426.935	65.7909
426.435	65.4566
425.937	65.0765
425.4382	64.7197
424.94	64.3784
424.441	64.3152
423.943	64.0755
423.444	63.8797
422.946	63.7036
422.447	63.4225
421.948	63.3275
421.45	63.2101
420.949	63.1386
420.45	62.9717
419.952	62.9745
419.453	63.0859
418.954	63.2006
418.4552	63.31485
417.956	63.2606
417.455	63.4741
416.957	63.2706
416.458	63.6495
415.959	64.1847
415.46	65.0271
414.961	65.7442
414.46	66.2384
413.961	66.8653
413.461	67.60804
412.962	68.40226
412.461	69.0188
411.962	69.7579
411.463	70.4445
410.964	71.0514
410.464	72.3657
409.963	73.9287
409.464	76.2687
408.964	78.7438
408.465	82.0757
407.964	84.581
407.464	90.2564
406.965	96.2378
406.463	103.092
405.964	110.075
405.464	116.277
404.9646	120.868
404.463	123.881
403.963	122.412
403.464	112.255
402.962	99.99
402.462	91.9847
401.963	84.5578
401.461	77.9777
400.961	74.3539
400.461	71.8951
399.959	70.3122
399.46	68.9923
398.958	67.5521
398.4577	66.799
397.958	65.8648
397.456	65.1595
396.956	64.7341
396.454	63.8989
395.954	63.7841
395.454	63.4533
394.951	63.1
394.451	62.4948
393.9491	62.1856
393.449	61.6845
392.949	61.348
392.446	61.0353
391.946	60.9153
391.444	61.0744
390.944	61.1283
390.441	61.4868
389.941	62.1331
389.438	63.6294
388.938	65.1988
388.435	67.2491
387.935	69.9247
387.432	72.8731
386.932	75.6675
386.429	78.9476
385.929	81.7105
385.4259	84.1546
384.925	86.3141
384.423	88.0349
383.922	88.8592
383.419	88.91143
382.918	88.0342
382.4155	83.5393
381.915	81.6028
381.4118	79.4482
380.909	77.1981
380.408	74.7397
379.905	72.6014
379.404	70.8674
378.901	69.3016
378.398	67.4791
377.897	66.878
377.394	65.51432
376.893	64.3179
376.39	63.5598
375.886	63.0419
375.385	62.4828
374.882	62.111
374.379	61.83445
373.877	61.645
373.374	61.6656
372.871	61.42379
372.369	61.4447
371.866	61.53656
371.363	61.8152
370.861	62.1249
370.3577	62.3854
369.854	62.8377
369.353	63.1057
368.849	63.1569
368.345	63.2052
367.844	63.3767
367.34	63.2551
366.837	63.1712
366.333	63.1607
365.831	62.8908
365.327	62.4201
364.824	61.8741
364.32	61.28878
363.818	60.8807
363.314	60.5807
362.81	60.09697
362.306	59.6846
361.804	59.4143
361.3	59.4201
360.796	59.6107
360.292	59.7588
359.788	59.8438
359.286	60.0844
358.782	60.3249
358.278	60.4389
357.774	60.2169
357.269	60.1635
356.765	59.9585
356.263	59.6796
355.759	59.8093
355.254	59.9566
354.75	60.2618
354.246	60.4954
353.741	60.71965
353.237	61.05373
352.734	61.30336
352.23	61.33041
351.7254	61.5286
351.221	61.4997
350.716	61.5301
350.2117	61.4862
349.707	61.42384
349.202	61.2694
348.698	60.9148
348.193	60.4907
347.688	60.1635
347.186	59.7856
346.681	59.2822
346.176	58.6631
345.671	58.5379
345.166	58.56411
344.661	58.4832
344.1564	58.66935
343.651	59.1112
343.146	59.7806
342.641	60.2296
342.136	60.7623
341.631	61.3178
341.126	61.7124
340.621	61.9774
340.116	62.3464
339.611	62.5687
339.106	62.6713
338.6	62.7599
338.095	62.5419
337.59	62.69825
337.084	62.5409
336.577	62.3036
336.072	62.0037
335.566	61.7534
335.061	61.0527
334.555	60.3596
334.05	59.737
333.544	59.3179
333.039	59.0816
332.5332	58.7389
332.028	58.5475
331.522	58.3505
331.014	58.2942
330.509	58.3782
330.003	58.8162
329.497	59.3276
328.991	59.9685
328.486	60.6903
327.98	60.9924
327.474	61.5583
326.966	61.93821
326.46	61.9628
325.9541	61.7026
325.448	61.4757
324.942	60.9377
324.434	60.5753
323.928	59.8475
323.422	59.1872
322.916	58.7392
322.41	58.4399
321.902	58.1952
321.395	57.95821
320.889	58.173
320.383	58.6096
319.877	59.06913
319.368	59.5535
318.862	59.8927
318.356	60.295
317.849	60.773
317.341	61.4684
316.834	62.48745
316.328	62.7131
315.819	63.0181
315.313	62.9122
314.806	62.7083
314.3	62.1958
313.791	61.2696
313.284	60.2446
312.778	59.6687
312.269	59.46764
311.762	59.3393
311.255	59.2969
310.747	59.5383
310.24	60.3886
309.733	61.1237
309.224	62.4764
308.717	62.8329
308.2103	62.3859
307.701	62.381
307.194	62.36726
306.685	62.2802
306.178	62.3655
305.6712	62.4434
305.162	62.6462
304.655	62.9941
304.146	63.2331
303.639	63.3966
303.131	63.6079
302.6221	63.7114
302.115	63.8205
301.6055	63.9079
301.098	64.08
300.589	64.299
300.081	64.4309
299.5741	64.0757
299.065	63.7637
298.557	63.4624
298.048	63.3629
297.54	63.1486
297.031	63.3805
296.523	63.5446
296.013	63.72197
295.506	63.7555
294.996	63.7722
294.488	63.8609
293.979	63.7375
293.471	63.5188
292.961	63.40361
292.453	63.316
291.943	63.258
291.436	63.067
290.926	62.9536
290.416	62.7912
289.908	61.8202
289.398	61.363
288.89	61.1843
288.38	61.2381
287.872	61.0451
287.362	60.8765
286.851	61.0989
286.343	61.3185
285.833	61.6017
285.325	61.5988
284.815	61.4803
284.304	61.29636
283.796	61.044
283.286	60.8446
282.777	60.9478
282.267	60.8583
281.7565	60.60619
281.248	60.014
280.738	59.52602
280.227	58.9407
279.719	58.56
279.208	58.0153
278.697	57.4692
278.189	57.1065
277.678	56.79134
277.168	56.5935
276.657	56.4614
276.148	56.5315
275.637	56.7634
275.127	57.0477
274.618	57.8161
274.1069	58.25
273.596	58.3116
273.085	57.6458
272.576	57.0772
272.065	56.7521
271.554	56.2863
271.043	56.0657
270.534	55.9878
270.023	55.8154
269.512	55.8803
269.001	56.08411
268.492	56.2073
267.981	56.6193
267.469	56.5459
266.958	56.7438
266.447	57.0108
265.938	57.2025
265.426	57.1757
264.915	57.1028
264.403	56.9891
263.892	56.7676
263.381	56.3982
262.871	55.8952
262.36	55.6028
261.848	55.1373
261.337	54.8856
260.825	54.8216
260.313	55.0841
259.802	55.3796
259.292	55.9216
258.78	56.3927
258.269	56.9224
257.757	57.2124
257.245	57.3126
256.733	57.47937
256.221	57.4524
255.709	57.3441
255.198	57.6902
254.686	57.9202
254.174	57.9288
253.662	57.6861
253.1517	57.2533
252.64	57.0498
252.128	56.9668
251.615	56.7585
251.103	56.714
250.591	56.6778
250.079	56.67651
249.567	56.5106
249.054	56.2805
248.542	56.3411
248.03	56.3038
247.518	56.2967
247.0052	56.033
246.493	55.8111
245.98	55.6677
245.468	55.76683
244.955	55.8853
244.443	55.9556
243.93	56.08099
243.418	55.9887
242.905	56.0531
242.391	56.0218
241.8779	56.0057
241.365	55.8411
240.853	55.8239
240.34	55.8186
239.827	56.1355
239.314	56.2794
238.801	56.5068
238.289	56.6629
237.7757	56.945
237.2628	57.2828
236.748	57.3959
236.2348	57.5128
235.722	57.6783
235.2088	57.8919
234.696	58.1105
234.183	58.13298
233.67	57.8849
233.154	57.8146
232.641	58.0514
232.128	58.1201
231.615	58.2838
231.102	58.3816
230.588	58.3938
230.073	58.1171
229.56	57.8229
229.046	57.453
228.533	56.89481
228.019	56.5156
227.504	56.3377
226.99	56.081
226.477	55.8184
225.963	55.7371
225.45	55.6376
224.9341	55.3937
224.42	55.2532
223.907	55.0102
223.393	54.7971
222.877	54.5576
222.364	54.1885
221.85	53.70657
221.334	53.4415
220.82	53.3726
220.306	53.4769
219.792	53.5455
219.276	53.6161
218.763	54.0551
218.2486	54.5081
217.7325	55.0971
217.218	55.7805
216.704	56.20306
216.188	56.75634
215.674	57.1727
215.16	57.5088
214.6438	57.53212
214.13	57.5828
213.6154	57.3817
213.099	56.7555
212.585	55.7186
212.07	54.3921
211.554	53.0652
211.0397	52.2007
210.523	51.6391
210.0088	51.0523
209.494	50.7536
208.978	51.0596
208.463	51.6342
207.947	52.0419
207.4321	52.4199
206.918	52.9448
206.4008	53.4012
205.886	54.1656
205.369	54.7864
204.855	55.5111
204.338	55.7861
203.8231	55.6814
203.306	55.5854
202.791	55.0495
202.277	54.34164
201.7596	53.7125
201.245	53.133
200.728	52.6312
200.213	51.827
199.696	51.1551
199.1806	50.9169
198.663	50.7286
198.148	50.51
197.631	50.45113
197.114	50.194
196.5988	50.2705
196.0815	50.6703
195.5663	51.4013
195.049	51.9686
194.534	52.5664
194.016	52.9608
193.501	53.3368
192.983	53.563
192.468	53.6887
191.951	53.7822
191.433	53.6583
190.918	53.32917
190.4	53.2611
189.884	53.051
189.367	52.7917
188.849	52.41296
188.333	51.91666
187.816	51.6065
187.3	51.398
186.782	51.1793
186.264	51.2197
185.749	51.06485
185.231	50.9747
184.7128	50.9206
184.197	51.1202
183.679	51.2446
183.161	51.5397
182.645	51.7003
182.127	52.1716
181.609	52.647
181.093	52.7896
180.575	52.8367
180.057	52.5934
179.54	52.342
179.022	51.9996
178.504	51.686
177.986	51.2403
177.469	50.8411
176.951	50.4185
176.433	49.8113
175.914	49.47213
175.3979	48.8468
174.879	48.8681
174.361	48.7253
173.842	49.0529
173.326	49.4978
172.807	49.9702
172.289	50.6329
171.77	51.5808
171.254	51.7694
170.735	51.742
170.216	51.5752
169.697	50.9914
169.179	50.7949
168.662	50.4915
168.143	50.4168
167.624	50.3801
167.105	50.4277
166.586	50.6194
166.067	50.7298
165.55	51.1532
165.031	51.2641
164.512	51.4532
163.9933	51.7084
163.4742	52.1617
162.955	52.3468
162.4359	52.4714
161.9167	51.9763
161.3996	51.5992
160.88	50.9615
160.361	50.4989
159.842	49.98925
159.3224	49.3307
158.803	48.8497
158.284	48.416
157.764	48.1425
157.245	48.15361
156.725	48.2831
156.206	48.6825
155.686	49.5728
155.169	49.7041
154.649	49.8022
154.13	49.8387
153.61	49.941
153.09	49.9489
152.57	50.02512
152.051	50.0525
151.531	49.98983
151.011	50.0015
150.491	49.9565
149.971	49.9453
149.452	49.8513
148.932	49.8225
148.412	49.8401
147.892	49.6543
147.372	49.6327
146.8517	49.655
146.332	49.9026
145.812	49.7345
145.289	49.3392
144.769	48.9206
144.249	48.5731
143.729	48.3446
143.209	48.241
142.688	48.5464
142.168	48.6561
141.648	49.6798
141.127	50.2843
140.607	51.5154
140.086	52.4902
139.566	53.5594
139.046	54.723
138.523	55.9811
138.002	57.2332